linear_acceleration.x,linear_acceleration.y,linear_acceleration.z,GPS.lat,GPS.long,GPS.alt
-0.04964845,0.06293297,0.2882948,17.58144201,78.12062195,452.9315185546875
-0.08487582,0.22901583,0.27759743,17.58144201,78.12062195,452.9315185546875
0.087074965,0.0071573257,0.087685585,17.58144201,78.12062195,452.9315185546875
0.0143509805,0.11702871,0.16781902,17.58144201,78.12062195,452.9315185546875
0.3038965,0.4755268,0.05631256,17.58144201,78.12062195,452.9315185546875
0.2648956,-0.07079506,-0.4221058,17.58144201,78.12062195,452.9315185546875
-0.31999922,0.6428056,-0.3269949,17.58144201,78.12062195,452.9315185546875
0.41401124,-0.18608856,0.2061367,17.58144201,78.12062195,452.9315185546875
-0.33726853,0.010210991,-0.030096054,17.58144201,78.12062195,452.9315185546875
-0.00483191,0.12458706,0.228508,17.58144201,78.12062195,452.9315185546875
-0.15912262,-0.07249546,-0.23326683,17.58144201,78.12062195,452.9315185546875
-0.050491363,0.030852795,-0.343997,17.58144201,78.12062195,452.9315185546875
0.13516003,-0.034653664,0.16091251,17.58144201,78.12062195,452.9315185546875
-0.0022345483,-0.050233364,0.24918938,17.58144201,78.12062195,452.9315185546875
-0.44334987,-0.0769248,-0.2131319,17.58144201,78.12062195,452.9315185546875
0.25870115,-0.31070566,0.115338326,17.58144201,78.12062195,452.9315185546875
0.074858874,-0.07775688,0.34978104,17.58144201,78.12062195,452.9315185546875
-0.027638048,-0.080340385,0.3018589,17.58144201,78.12062195,452.9315185546875
-0.029458404,-0.119488716,0.11021519,17.58144201,78.12062195,452.9315185546875
-0.16090241,-0.060947895,0.061030388,17.58144201,78.12062195,452.9315185546875
0.048947565,-0.16450691,0.0012350082,17.58144201,78.12062195,452.9315185546875
-0.09104588,-0.05531454,-0.051362038,17.58144201,78.12062195,452.9315185546875
-0.17156449,-0.06876755,-0.072340965,17.58144201,78.12062195,452.9315185546875
-0.053986587,0.025452137,-0.18525124,17.58144201,78.12062195,452.9315185546875
0.13053848,-0.054353714,0.042984962,17.58144201,78.12062195,452.9315185546875
-0.006751068,-0.034030914,-0.08063316,17.58144201,78.12062195,452.9315185546875
-3.5312772E-4,-0.08710194,0.3113432,17.58144201,78.12062195,452.9315185546875
0.059035875,-0.028723717,-0.06489563,17.58144201,78.12062195,452.9315185546875
0.15484312,-0.32563496,-0.43163586,17.58144201,78.12062195,452.9315185546875
0.0018175896,0.21794748,0.40122986,17.58144201,78.12062195,452.9315185546875
0.014244032,-0.055867195,0.057456017,17.58144201,78.12062195,452.9315185546875
0.19287336,-0.15839338,0.08691025,17.58144201,78.12062195,452.9315185546875
-0.21414873,0.15610027,-0.29484272,17.58108274,78.12095765,471.24127197265625
-0.081116505,0.023011684,-0.15832424,17.58108274,78.12095765,471.24127197265625
0.3539962,-0.16872883,0.19969559,17.58108274,78.12095765,471.24127197265625
0.014982581,0.16218948,0.15444946,17.58108274,78.12095765,471.24127197265625
-0.12397077,-0.08943081,-0.13502407,17.58108274,78.12095765,471.24127197265625
-0.048454873,-0.23944902,-0.04792118,17.58108274,78.12095765,471.24127197265625
-0.001955714,0.012521267,0.14344025,17.58108274,78.12095765,471.24127197265625
-0.07960049,-0.037914753,-0.18315029,17.58108274,78.12095765,471.24127197265625
0.08035472,-0.018775463,0.030614853,17.58108274,78.12095765,471.24127197265625
-0.080010936,0.06684971,-0.059853554,17.58108274,78.12095765,471.24127197265625
0.015521934,-0.18675947,-0.07718468,17.58108274,78.12095765,471.24127197265625
-0.028106008,-0.056563377,0.20647049,17.58108274,78.12095765,471.24127197265625
-0.014617648,5.030632E-4,0.07933521,17.58108274,78.12095765,471.24127197265625
-0.14976458,-0.04765606,-0.29524136,17.58108274,78.12095765,471.24127197265625
0.19180726,-0.02327156,-0.08214378,17.58108274,78.12095765,471.24127197265625
0.06643938,0.093822,0.12644672,17.58108274,78.12095765,471.24127197265625
-0.12815315,0.01959753,0.18214798,17.58108274,78.12095765,471.24127197265625
0.032731235,0.11663246,-0.12390804,17.58108274,78.12095765,471.24127197265625
-0.21267895,0.39022255,-0.54386806,17.58108274,78.12095765,471.24127197265625
0.03981,0.016299725,0.14253426,17.58108274,78.12095765,471.24127197265625
0.08507264,0.022659779,0.084383965,17.58108274,78.12095765,471.24127197265625
-0.03112638,0.053682327,0.27286053,17.58108274,78.12095765,471.24127197265625
-0.030547589,0.17428684,0.17846489,17.58108274,78.12095765,471.24127197265625
-0.0020689666,0.024474144,0.10679245,17.58108274,78.12095765,471.24127197265625
-0.034779638,0.03401947,-0.23430157,17.58108274,78.12095765,471.24127197265625
0.03759706,0.069117546,-0.17814445,17.58108274,78.12095765,471.24127197265625
-0.117915705,-0.040010452,-0.30187893,17.58108274,78.12095765,471.24127197265625
-0.26872998,0.10310316,0.42589474,17.58108274,78.12095765,471.24127197265625
5.901605E-4,-0.09039068,0.08486557,17.58108274,78.12095765,471.24127197265625
5.4587424E-4,0.10871267,0.22330952,17.58108775,78.12094726,450.53369140625
0.08126962,0.08352852,-0.04168701,17.58108775,78.12094726,450.53369140625
-0.103392065,0.04908085,-0.24222088,17.58108775,78.12094726,450.53369140625
0.078383565,-0.037942886,0.12568474,17.58108775,78.12094726,450.53369140625
-0.08952148,0.025758743,-0.14220238,17.58108775,78.12094726,450.53369140625
-0.049407557,-0.05661249,0.08860588,17.58108775,78.12094726,450.53369140625
0.12565881,0.027471542,0.1816349,17.58108775,78.12094726,450.53369140625
-0.08253005,0.13124895,0.3010559,17.58108775,78.12094726,450.53369140625
0.01989925,-0.022541046,0.08343887,17.58108775,78.12094726,450.53369140625
-0.014885768,-0.04445553,-0.5496292,17.58108775,78.12094726,450.53369140625
0.022993937,0.1824851,0.17346668,17.58111566,78.12095937,452.37744140625
0.06876624,-0.09598398,-0.36548328,17.58111566,78.12095937,452.37744140625
-0.093054615,-0.12371397,-0.03986454,17.58111566,78.12095937,452.37744140625
0.027435169,0.016368866,0.317935,17.58111566,78.12095937,452.37744140625
-0.034989253,0.021825314,0.006371498,17.58111566,78.12095937,452.37744140625
-0.20461847,0.018016338,0.0031604767,17.58111566,78.12095937,452.37744140625
0.1853418,0.08144045,-0.07091141,17.58111566,78.12095937,452.37744140625
-0.2507012,-0.20092249,-1.2601075,17.58111566,78.12095937,452.37744140625
0.5495702,0.06043291,0.8825569,17.58111566,78.12095937,452.37744140625
-0.07051039,-0.19510317,-0.18810081,17.58112362,78.12097602,450.16021728515625
-0.18395919,0.3587246,1.2514801,17.58112362,78.12097602,450.16021728515625
-0.16715115,-0.07572222,0.023757935,17.58112362,78.12097602,450.16021728515625
0.0025509596,-0.11048603,-0.2204094,17.58112362,78.12097602,450.16021728515625
1.229288,-0.3134365,0.31110477,17.58112362,78.12097602,450.16021728515625
-0.23233074,-0.043432236,-0.94833136,17.58112362,78.12097602,450.16021728515625
0.030463934,-0.05327511,-0.10467625,17.58112362,78.12097602,450.16021728515625
-0.12909186,0.10284901,0.15256405,17.58112362,78.12097602,450.16021728515625
-0.023166418,-0.036197186,-0.11376381,17.58112362,78.12097602,450.16021728515625
-0.018356204,-0.09910965,0.13682747,17.58112362,78.12097602,450.16021728515625
-0.007000804,0.002008438,0.0281744,17.58112362,78.12097602,450.16021728515625
0.03382969,0.02857542,-0.043484688,17.58112362,78.12097602,450.16021728515625
-0.039372087,0.10763407,0.15112019,17.58112362,78.12097602,450.16021728515625
0.03626299,0.053599358,-0.14910793,17.58112362,78.12097602,450.16021728515625
0.021766186,-0.05461502,0.21888828,17.58112362,78.12097602,450.16021728515625
-0.018408775,-0.05290413,0.14405441,17.58112362,78.12097602,450.16021728515625
-0.06449592,-0.11555481,-0.058484077,17.58112362,78.12097602,450.16021728515625
-0.1509788,0.004890442,-0.005542755,17.58112362,78.12097602,450.16021728515625
0.020404875,0.09297562,0.09389973,17.58112362,78.12097602,450.16021728515625
0.072060764,0.12940788,0.15181255,17.58112362,78.12097602,450.16021728515625
0.11634284,0.016989708,0.09891224,17.58112362,78.12097602,450.16021728515625
4.5204163E-4,0.013799667,0.041443825,17.58112362,78.12097602,450.16021728515625
0.029439807,-0.07481718,0.083836555,17.58112362,78.12097602,450.16021728515625
-0.10305238,-0.06562376,-0.16071892,17.58112362,78.12097602,450.16021728515625
-0.09026432,-0.10386562,-0.15989876,17.58112362,78.12097602,450.16021728515625
-0.0124925375,0.020201683,0.14182854,17.58112362,78.12097602,450.16021728515625
0.11564779,0.058248043,0.20034885,17.58112362,78.12097602,450.16021728515625
-0.028648496,0.027044296,-0.21122742,17.58112362,78.12097602,450.16021728515625
0.030205011,0.061232567,0.057844162,17.58112362,78.12097602,450.16021728515625
0.10950899,-0.037225246,0.077516556,17.58113417,78.12097635,446.080810546875
0.061426878,-0.09337664,0.015028,17.58113417,78.12097635,446.080810546875
-0.119395256,0.035821915,0.20333195,17.58113417,78.12097635,446.080810546875
0.0055863857,-0.12938309,-0.19387054,17.58113417,78.12097635,446.080810546875
-0.018359065,0.09271002,0.33509064,17.58113417,78.12097635,446.080810546875
0.046179533,-0.0010919571,-0.18000889,17.58113417,78.12097635,446.080810546875
0.08719444,0.015129089,-0.033187866,17.58113417,78.12097635,446.080810546875
0.09407735,-0.06819677,-0.20458412,17.58113417,78.12097635,446.080810546875
-0.02603817,0.13985062,0.1715641,17.58113417,78.12097635,446.080810546875
0.12930804,-0.10467577,-0.056333542,17.58113417,78.12097635,446.080810546875
-0.01794219,-0.04727316,0.07575607,17.58113417,78.12097635,446.080810546875
-0.053641796,-0.055331707,-0.14271355,17.58113417,78.12097635,446.080810546875
-0.024219394,-0.025642872,0.104637146,17.58113417,78.12097635,446.080810546875
-0.042678,-0.067388535,-0.11145401,17.58113417,78.12097635,446.080810546875
-0.08697212,-0.064866066,-0.08948994,17.58113417,78.12097635,446.080810546875
-0.06675196,0.024343014,0.017681122,17.58113417,78.12097635,446.080810546875
0.15961248,0.04085684,0.1770029,17.58113417,78.12097635,446.080810546875
0.16862786,-0.024389267,0.13990498,17.58113417,78.12097635,446.080810546875
0.03138721,-0.017840862,0.06823826,17.58113417,78.12097635,446.080810546875
-0.0015497208,0.001563549,0.27550983,17.58113417,78.12097635,446.080810546875
0.02334857,-0.06229973,-0.050807,17.58113417,78.12097635,446.080810546875
-0.015235662,-0.011907101,0.0121536255,17.58113417,78.12097635,446.080810546875
0.04050839,-0.029191494,-0.040257454,17.58113417,78.12097635,446.080810546875
-0.018951178,-0.010627747,0.12188244,17.58113417,78.12097635,446.080810546875
0.001034975,-0.062467575,-0.094818115,17.58113417,78.12097635,446.080810546875
0.07635003,-0.1776638,-0.18102932,17.58113417,78.12097635,446.080810546875
0.00201118,-0.14918804,-0.03446865,17.58113417,78.12097635,446.080810546875
-0.08292246,0.019331932,0.16853142,17.58113417,78.12097635,446.080810546875
-0.016021013,-0.056694508,-0.112231255,17.58113417,78.12097635,446.080810546875
0.0120200515,-0.06130457,-0.0827198,17.58113417,78.12097635,446.080810546875
-0.033783793,0.045952797,-0.015723228,17.58113417,78.12097635,446.080810546875
-0.020819545,0.04376316,0.14463615,17.58113417,78.12097635,446.080810546875
-0.7123309,0.46293354,-0.13904095,17.58113417,78.12097635,446.080810546875
-0.98892003,0.22135496,-0.6769619,17.58113417,78.12097635,446.080810546875
0.69740975,-0.22249508,1.4004822,17.58113417,78.12097635,446.080810546875
1.364546,-1.0782781,-1.0321059,17.58113417,78.12097635,446.080810546875
0.28593773,0.12188196,-0.37355518,17.58113417,78.12097635,446.080810546875
0.16670364,-0.02353859,0.14907265,17.58113417,78.12097635,446.080810546875
0.12163592,-0.25306273,0.085258484,17.58113417,78.12097635,446.080810546875
0.17344774,-0.08257103,-0.10762119,17.58113417,78.12097635,446.080810546875
-0.13897865,-0.08962393,-0.2595253,17.58113417,78.12097635,446.080810546875
0.13629484,-0.19875288,-0.059563637,17.58113417,78.12097635,446.080810546875
0.122939095,-0.098517895,-0.109947205,17.58113417,78.12097635,446.080810546875
0.050800715,-0.025228977,-0.13871098,17.58113417,78.12097635,446.080810546875
0.49410525,-0.41082573,-0.27472782,17.58113417,78.12097635,446.080810546875
0.028198995,-0.118003845,-0.06127739,17.58113417,78.12097635,446.080810546875
-0.3283199,0.3205409,0.13118458,17.58113417,78.12097635,446.080810546875
0.0067879856,2.4032593E-4,-0.24352741,17.58113417,78.12097635,446.080810546875
0.61814785,-0.23694658,-0.037596703,17.58113417,78.12097635,446.080810546875
-0.07226753,0.13495302,-0.06205845,17.58113417,78.12097635,446.080810546875
-0.33542407,0.15677166,-0.17801094,17.58113417,78.12097635,446.080810546875
-0.39422953,0.26097202,-0.14057064,17.58113417,78.12097635,446.080810546875
-0.105953336,-0.05161953,-0.13399363,17.58113417,78.12097635,446.080810546875
0.06399763,-0.027507782,0.063224316,17.58113417,78.12097635,446.080810546875
0.022939563,0.036744118,-0.010787487,17.58113417,78.12097635,446.080810546875
0.007242799,-0.02939272,-0.018403053,17.58113417,78.12097635,446.080810546875
-0.014618516,0.004896164,0.1695447,17.58113417,78.12097635,446.080810546875
0.032224894,-0.0042977333,0.11303711,17.58113417,78.12097635,446.080810546875
0.10522783,0.012892723,0.15785313,17.58113417,78.12097635,446.080810546875
0.007992864,0.048563957,0.07248688,17.58113417,78.12097635,446.080810546875
0.021022081,-0.047269344,-0.016307354,17.58113417,78.12097635,446.080810546875
-0.11123657,0.04602909,-0.051680088,17.58113417,78.12097635,446.080810546875
-0.05724299,-0.025054455,0.026048183,17.58113417,78.12097635,446.080810546875
-0.109104514,-0.03810692,-0.3111372,17.58113417,78.12097635,446.080810546875
-0.044363856,0.087274075,0.09341335,17.58113417,78.12097635,446.080810546875
-0.073197484,0.10192728,-0.080815315,17.58113417,78.12097635,446.080810546875
-0.1577431,0.27211666,-0.26109505,17.58113417,78.12097635,446.080810546875
-0.12356043,-0.016254425,-0.630023,17.58113417,78.12097635,446.080810546875
0.38622487,0.45178175,0.17566776,17.58113417,78.12097635,446.080810546875
-0.38520145,0.24318981,-0.3736453,17.58113417,78.12097635,446.080810546875
0.10334706,0.19419193,0.004085541,17.58113417,78.12097635,446.080810546875
0.5248345,0.05751562,0.46382713,17.58113417,78.12097635,446.080810546875
0.40942562,-0.1799984,-0.12911606,17.58113417,78.12097635,446.080810546875
0.044128597,0.39056015,-0.6796155,17.58113417,78.12097635,446.080810546875
0.024735272,0.040201664,-0.22042465,17.58113417,78.12097635,446.080810546875
0.08904362,0.010621548,-0.70133543,17.58113417,78.12097635,446.080810546875
0.18149093,0.34222364,0.26186657,17.58113417,78.12097635,446.080810546875
-0.13940924,0.10390425,-0.5508685,17.58113417,78.12097635,446.080810546875
0.24594282,-0.2490921,-0.1485281,17.58113417,78.12097635,446.080810546875
0.46058828,0.07430792,0.10848808,17.58113417,78.12097635,446.080810546875
-0.76015913,0.24975586,-0.11165619,17.58113417,78.12097635,446.080810546875
0.4453964,-0.2652998,-0.22728825,17.58113417,78.12097635,446.080810546875
-0.31001148,0.24802732,0.006965637,17.58113417,78.12097635,446.080810546875
-0.18648003,0.17382717,0.1983881,17.58113417,78.12097635,446.080810546875
0.8602773,-0.010682583,0.055095673,17.58113417,78.12097635,446.080810546875
-0.35408008,0.2875247,-0.6755433,17.58113417,78.12097635,446.080810546875
0.3781477,-0.041175842,0.2064848,17.58113417,78.12097635,446.080810546875
-0.18936774,-0.32943344,0.45042706,17.58113417,78.12097635,446.080810546875
0.6863219,-0.35518885,0.04246521,17.58113417,78.12097635,446.080810546875
-0.029267088,-0.23719549,0.37681866,17.58113417,78.12097635,446.080810546875
0.103544384,-0.26944208,0.14543724,17.58113417,78.12097635,446.080810546875
-0.019357495,-0.11927223,0.17475605,17.58113417,78.12097635,446.080810546875
0.114703305,-0.20679331,-0.17226791,17.58113417,78.12097635,446.080810546875
0.19657975,-0.37656832,-0.0057268143,17.58113417,78.12097635,446.080810546875
-0.018422216,0.011943817,-0.12302685,17.58113417,78.12097635,446.080810546875
0.18235403,-0.018061638,0.33665752,17.58113417,78.12097635,446.080810546875
-0.024878398,0.104206085,-0.07974148,17.58113417,78.12097635,446.080810546875
0.08572539,-0.17910337,0.4274664,17.58113417,78.12097635,446.080810546875
0.11032509,0.07429123,-0.11842251,17.58113417,78.12097635,446.080810546875
-0.019829035,0.08066988,-0.115553856,17.58113417,78.12097635,446.080810546875
0.11524422,0.20553446,0.08754635,17.58113417,78.12097635,446.080810546875
-0.06173946,-0.2829666,-0.31897736,17.58113417,78.12097635,446.080810546875
0.023070037,0.0092487335,-0.18460178,17.58113417,78.12097635,446.080810546875
0.050020847,-0.022696018,0.0051193237,17.58113417,78.12097635,446.080810546875
-0.20413014,-0.23682022,0.47035408,17.58113417,78.12097635,446.080810546875
-0.048666887,-0.42045403,0.30628872,17.58113417,78.12097635,446.080810546875
-0.06124547,-0.17416096,0.15167522,17.58113417,78.12097635,446.080810546875
-0.07315263,-0.7023215,0.09857845,17.58113417,78.12097635,446.080810546875
-0.3148817,0.4658451,-0.10292721,17.58113417,78.12097635,446.080810546875
0.13196698,-0.32499838,0.46228027,17.58113417,78.12097635,446.080810546875
0.2614143,-0.34307528,-0.030528069,17.58113417,78.12097635,446.080810546875
-0.6007104,-0.2942195,-0.24862766,17.58113417,78.12097635,446.080810546875
-0.25144246,-1.0750403,-0.091712,17.58113417,78.12097635,446.080810546875
0.039789796,-1.1162558,0.8738308,17.58113417,78.12097635,446.080810546875
-0.6019671,-0.8096404,0.7495098,17.58113417,78.12097635,446.080810546875
-0.37870935,-0.83674574,0.72532845,17.58113417,78.12097635,446.080810546875
-0.53524387,-0.7331252,0.5462713,17.58113417,78.12097635,446.080810546875
-0.47548568,-0.6948662,0.31239033,17.58113417,78.12097635,446.080810546875
-0.4582665,-0.5981345,0.11491871,17.58113417,78.12097635,446.080810546875
-0.23879248,-0.5361824,0.5389004,17.58113417,78.12097635,446.080810546875
-0.052221477,-0.25664282,0.283185,17.58113417,78.12097635,446.080810546875
-0.06400782,-0.14656496,0.019065857,17.58113417,78.12097635,446.080810546875
-0.36424989,0.1497078,-0.02947998,17.58113417,78.12097635,446.080810546875
-0.116261005,0.18579006,0.05611229,17.58113417,78.12097635,446.080810546875
0.016566455,0.11366701,-0.06276417,17.58113417,78.12097635,446.080810546875
-0.05371827,0.22657442,-0.2793808,17.58113906,78.12096823,447.88385009765625
-0.20839924,0.37165308,-0.2872467,17.58113906,78.12096823,447.88385009765625
-0.15450418,0.2662902,-0.39004135,17.58113906,78.12096823,447.88385009765625
-4.8553944E-4,0.37374544,-0.018128395,17.58113906,78.12096823,447.88385009765625
0.18497407,0.19433355,-0.1030817,17.58113906,78.12096823,447.88385009765625
0.07385069,0.06670475,-0.12866688,17.58113906,78.12096823,447.88385009765625
-0.0054055452,0.13502121,-0.036948204,17.58113906,78.12096823,447.88385009765625
-0.012965739,0.153965,-0.17687035,17.58113906,78.12096823,447.88385009765625
-0.05190301,0.119729996,0.04132366,17.58113906,78.12096823,447.88385009765625
0.027821064,0.09516239,0.12495899,17.58113906,78.12096823,447.88385009765625
-0.029307365,0.11022282,-0.11677933,17.58113906,78.12096823,447.88385009765625
-0.07204205,0.1144104,-0.13703251,17.58113906,78.12096823,447.88385009765625
-0.13964593,0.08542299,0.059818268,17.58113906,78.12096823,447.88385009765625
-0.03628373,-0.06695938,-0.318079,17.58113906,78.12096823,447.88385009765625
0.03135419,0.035254955,-0.088853836,17.58113906,78.12096823,447.88385009765625
0.12527746,-0.10354853,0.23509407,17.58113906,78.12096823,447.88385009765625
-0.0780285,0.081618786,-0.06492901,17.58113906,78.12096823,447.88385009765625
0.06289464,0.11686897,0.07987976,17.58113906,78.12096823,447.88385009765625
-0.03055793,0.33357668,-0.1195879,17.58113906,78.12096823,447.88385009765625
0.08374727,0.2450347,-0.21191311,17.58113906,78.12096823,447.88385009765625
0.06314707,0.18923807,-0.21983814,17.58113906,78.12096823,447.88385009765625
0.030645669,0.086790085,-0.115389824,17.58113906,78.12096823,447.88385009765625
0.021394193,0.15821648,9.651184E-4,17.58113906,78.12096823,447.88385009765625
-0.021061301,0.08300495,-0.03466034,17.58113906,78.12096823,447.88385009765625
0.0019664168,0.1060338,-0.03225708,17.58113906,78.12096823,447.88385009765625
-0.006401956,0.012895584,-0.07069397,17.58113906,78.12096823,447.88385009765625
-0.08164036,0.101902485,-0.37444782,17.58113906,78.12096823,447.88385009765625
-0.034549117,0.06360531,-0.11675072,17.58113906,78.12096823,447.88385009765625
-2.5993586E-4,0.06449938,0.035066605,17.58113906,78.12096823,447.88385009765625
0.0019779801,-0.013118267,0.004673004,17.58113906,78.12096823,447.88385009765625
0.011851311,-0.041634083,-0.034259796,17.58113906,78.12096823,447.88385009765625
0.0694325,-0.0041713715,0.13130093,17.58113906,78.12096823,447.88385009765625
0.019744754,0.026751995,0.12965298,17.58113906,78.12096823,447.88385009765625
0.02152592,0.032866955,0.18214607,17.58113906,78.12096823,447.88385009765625
0.059377372,-0.02739954,0.15235329,17.58113906,78.12096823,447.88385009765625
-0.090277255,0.012770176,-0.0027160645,17.58113906,78.12096823,447.88385009765625
-0.017937183,0.06779337,-0.004545212,17.58113906,78.12096823,447.88385009765625
0.11555943,-0.028088093,-0.05792713,17.58113906,78.12096823,447.88385009765625
0.02696985,-0.11550808,-0.07089615,17.58113906,78.12096823,447.88385009765625
0.01623869,-0.051352978,0.053581238,17.58113906,78.12096823,447.88385009765625
-0.0018517971,-0.0025310516,0.18157578,17.58113906,78.12096823,447.88385009765625
0.011970162,0.03505659,0.078393936,17.58113906,78.12096823,447.88385009765625
-0.024787843,0.055543423,-0.17143822,17.58113906,78.12096823,447.88385009765625
0.059815943,0.06570721,0.056269646,17.58113906,78.12096823,447.88385009765625
0.0018305182,-0.07719946,0.02001667,17.58113906,78.12096823,447.88385009765625
-0.01625532,-0.07141638,-0.09998608,17.58113906,78.12096823,447.88385009765625
-0.03097248,0.043771267,0.09336853,17.58113906,78.12096823,447.88385009765625
0.00591594,0.023916245,0.055397034,17.58113906,78.12096823,447.88385009765625
0.052772224,0.07442522,0.109968185,17.58113906,78.12096823,447.88385009765625
0.009652972,-0.08098984,-0.28891468,17.58113906,78.12096823,447.88385009765625
0.00992167,0.03487301,0.065382004,17.58113906,78.12096823,447.88385009765625
0.20778203,0.03667736,0.2030468,17.58113906,78.12096823,447.88385009765625
-0.13739699,-0.010416985,0.07300377,17.58113906,78.12096823,447.88385009765625
-0.0033183396,0.09386873,0.019979477,17.58113906,78.12096823,447.88385009765625
-0.010689259,-0.07443285,-0.24081135,17.58113906,78.12096823,447.88385009765625
-0.014603615,0.03451109,0.03569889,17.58113906,78.12096823,447.88385009765625
0.07375866,-0.008901119,0.025968552,17.58113906,78.12096823,447.88385009765625
0.034300566,-0.08198881,0.14859581,17.58113906,78.12096823,447.88385009765625
-0.078549385,-0.029107094,-0.074967384,17.58113906,78.12096823,447.88385009765625
-0.07224351,0.05791855,0.1094141,17.58113906,78.12096823,447.88385009765625
-0.07923043,-0.108156204,-0.04723835,17.58113906,78.12096823,447.88385009765625
0.19971055,0.016824245,0.34658432,17.58113906,78.12096823,447.88385009765625
-0.06887609,-0.090425014,-0.13111591,17.58113906,78.12096823,447.88385009765625
-0.10228628,-0.13277292,-0.10667229,17.58113906,78.12096823,447.88385009765625
-0.0023460388,0.007098675,0.05971527,17.58113906,78.12096823,447.88385009765625
-0.0065798163,-0.005821705,-0.02217865,17.58113906,78.12096823,447.88385009765625
-0.12078494,0.07541561,0.09992504,17.58113906,78.12096823,447.88385009765625
0.11278865,-0.04060507,-0.04018879,17.58113906,78.12096823,447.88385009765625
0.083515465,-0.068359375,-0.18550873,17.58113906,78.12096823,447.88385009765625
0.072288096,0.014295101,0.05219841,17.58113906,78.12096823,447.88385009765625
-0.056802988,0.10037613,0.017721176,17.58113906,78.12096823,447.88385009765625
0.12712833,-0.06696272,-0.30503845,17.58113906,78.12096823,447.88385009765625
-0.09862566,0.107842445,0.0104904175,17.58113906,78.12096823,447.88385009765625
-0.07537258,0.3413477,0.093153,17.58113906,78.12096823,447.88385009765625
0.08328381,0.04504776,0.028535843,17.58113906,78.12096823,447.88385009765625
-0.13357663,0.10142517,-0.2836485,17.58113906,78.12096823,447.88385009765625
0.10458368,0.006817341,0.017392159,17.58113906,78.12096823,447.88385009765625
0.07297993,0.2501912,0.13447475,17.58113906,78.12096823,447.88385009765625
0.21118477,0.2791028,-0.3453169,17.58113906,78.12096823,447.88385009765625
0.19148937,0.43437433,0.3452692,17.58113906,78.12096823,447.88385009765625
0.16487822,0.21403837,0.07715511,17.58113906,78.12096823,447.88385009765625
0.31213585,0.05078411,-0.38901043,17.58113906,78.12096823,447.88385009765625
-0.16284814,0.1255064,0.040643692,17.58113906,78.12096823,447.88385009765625
-0.07746339,0.24706411,-0.52927685,17.58113906,78.12096823,447.88385009765625
0.4015306,0.13152409,0.13758087,17.58113906,78.12096823,447.88385009765625
-0.34601146,0.2643032,0.3108387,17.58113906,78.12096823,447.88385009765625
0.7285906,0.100610256,0.18910027,17.58113906,78.12096823,447.88385009765625
-0.7128506,0.048358917,0.58641624,17.58113906,78.12096823,447.88385009765625
-0.013663098,0.17935514,-0.42328358,17.58113906,78.12096823,447.88385009765625
0.65374976,-0.24276209,0.0734539,17.58113906,78.12096823,447.88385009765625
0.02144615,-0.058454037,-0.57270145,17.58113906,78.12096823,447.88385009765625
-0.8361207,-0.00178051,1.0184364,17.58113906,78.12096823,447.88385009765625
0.38562688,-0.24218273,-0.43519115,17.58113906,78.12096823,447.88385009765625
0.7063729,0.20977783,-0.15250778,17.58113906,78.12096823,447.88385009765625
-0.08577481,-0.0268116,-0.06203556,17.58113906,78.12096823,447.88385009765625
-0.022583887,-0.20240879,0.19071579,17.58113906,78.12096823,447.88385009765625
0.30956596,-0.15178537,0.50092125,17.58113906,78.12096823,447.88385009765625
0.07719681,-0.30752516,-0.57638645,17.58113906,78.12096823,447.88385009765625
-0.2524336,-0.18578434,-0.038391113,17.58113906,78.12096823,447.88385009765625
-0.12634067,-0.4848261,0.3472042,17.58113906,78.12096823,447.88385009765625
-0.31232584,-0.13047647,-0.14422226,17.58113906,78.12096823,447.88385009765625
0.044554263,-0.332664,0.20684624,17.58113906,78.12096823,447.88385009765625
0.1351285,-0.44935656,0.3774128,17.58113906,78.12096823,447.88385009765625
0.03764105,-0.59967756,-0.018559456,17.58113906,78.12096823,447.88385009765625
-0.1771777,-0.0292449,0.6662712,17.58113906,78.12096823,447.88385009765625
-0.6387618,-0.017150402,0.5284281,17.58113906,78.12096823,447.88385009765625
-0.545215,0.10667086,0.5288248,17.58114735,78.12096398,449.712158203125
0.2748541,-0.32283115,0.0052814484,17.58114735,78.12096398,449.712158203125
0.3852744,-0.29542446,-0.13738632,17.58114735,78.12096398,449.712158203125
-0.3771151,0.19812775,0.13717651,17.58114735,78.12096398,449.712158203125
0.09920363,0.10200739,-0.349864,17.58114735,78.12096398,449.712158203125
0.6089164,-0.36065483,0.5186634,17.58114735,78.12096398,449.712158203125
-0.29326957,-0.08698511,-0.43919373,17.58114735,78.12096398,449.712158203125
-0.38726598,0.055531025,-0.2525921,17.58114735,78.12096398,449.712158203125
-0.20453393,0.19513988,0.28572655,17.58114735,78.12096398,449.712158203125
-0.40193754,0.047781944,-0.3530836,17.58114735,78.12096398,449.712158203125
-0.29700884,0.17362499,0.043143272,17.58114735,78.12096398,449.712158203125
-0.07850243,0.17349005,0.29634666,17.58114735,78.12096398,449.712158203125
-0.13732505,0.09596491,-0.09034634,17.58114735,78.12096398,449.712158203125
-0.21890327,-0.081749916,-0.010759354,17.58114735,78.12096398,449.712158203125
-0.013413042,0.059066296,0.27763748,17.58114735,78.12096398,449.712158203125
0.26046515,-0.0089149475,0.18680191,17.58114735,78.12096398,449.712158203125
0.12446098,-0.3118677,-0.6571579,17.58114735,78.12096398,449.712158203125
0.14390765,0.35590935,0.059713364,17.58114735,78.12096398,449.712158203125
-0.17268594,0.22890282,-0.3436041,17.58114735,78.12096398,449.712158203125
-0.15398142,0.051948547,0.38549328,17.58114735,78.12096398,449.712158203125
0.0718267,-0.04321003,-0.2776947,17.58114735,78.12096398,449.712158203125
-0.19397399,0.076191425,0.25509357,17.58114735,78.12096398,449.712158203125
-0.24502799,-0.026035309,-0.2818718,17.58114735,78.12096398,449.712158203125
-0.78210694,-0.085639,-0.32734013,17.58114735,78.12096398,449.712158203125
-1.7010293,-0.09879398,0.71227646,17.58114735,78.12096398,449.712158203125
-0.42784196,-0.20955181,-0.16200829,17.58114735,78.12096398,449.712158203125
-0.22308618,-0.33101892,-0.010409355,17.58114735,78.12096398,449.712158203125
-0.31646317,-0.08176088,0.24524593,17.58114735,78.12096398,449.712158203125
0.2973578,-0.7869525,-0.035196304,17.58114735,78.12096398,449.712158203125
-0.61163497,-0.8619869,0.7303686,17.58114735,78.12096398,449.712158203125
1.1081352,-0.3952465,0.49237347,17.58114735,78.12096398,449.712158203125
-0.17980662,-0.44230413,1.4580488,17.58114735,78.12096398,449.712158203125
0.8431019,-0.5484309,0.38228607,17.58114735,78.12096398,449.712158203125
0.3061028,-0.7699466,-1.1187644,17.58114735,78.12096398,449.712158203125
-0.98817843,-0.38485336,0.18114471,17.58114735,78.12096398,449.712158203125
-0.24346647,-0.55914927,-0.56946945,17.58114735,78.12096398,449.712158203125
-0.9170319,-0.41114235,0.63970375,17.58114735,78.12096398,449.712158203125
-0.2655488,-0.973089,1.2988672,17.58114735,78.12096398,449.712158203125
0.090815395,-1.543982,-0.15154648,17.58117238,78.12098337,451.46441650390625
1.5453827,-0.12304258,1.1922789,17.58117238,78.12098337,451.46441650390625
1.416048,0.6952462,-0.03157711,17.58117238,78.12098337,451.46441650390625
-0.8119132,0.78160906,-0.48235798,17.58117238,78.12098337,451.46441650390625
-1.5836879,1.1116586,-1.5508776,17.58117238,78.12098337,451.46441650390625
-2.0238366,0.30427408,-1.4847927,17.58117238,78.12098337,451.46441650390625
-0.3909134,-0.02333355,0.73311615,17.58117238,78.12098337,451.46441650390625
0.5088389,-0.0379138,1.1193037,17.58117238,78.12098337,451.46441650390625
1.3647485,-0.03995371,1.5150528,17.58117238,78.12098337,451.46441650390625
0.14215335,0.38818502,-0.91017675,17.58117238,78.12098337,451.46441650390625
0.48917985,0.9844742,-0.8767438,17.58120731,78.12100071,453.4964599609375
-0.4769363,0.92282534,-0.9062133,17.58120731,78.12100071,453.4964599609375
-1.6414368,0.5599375,-0.9872489,17.58120731,78.12100071,453.4964599609375
0.18444362,-0.066948414,1.0329723,17.58120731,78.12100071,453.4964599609375
0.26774126,0.06468725,-0.17920208,17.58120731,78.12100071,453.4964599609375
0.13993776,0.6463084,-0.043519974,17.58120731,78.12100071,453.4964599609375
-0.66315144,0.9359765,-0.76158047,17.58120731,78.12100071,453.4964599609375
-0.7405333,0.78682137,-0.35511208,17.58120731,78.12100071,453.4964599609375
-0.55016446,0.2737484,-0.70636654,17.58120731,78.12100071,453.4964599609375
-0.12196851,0.53102636,-0.25406647,17.58124068,78.12102012,454.705078125
1.2659675,-0.075163364,0.45564842,17.58124068,78.12102012,454.705078125
0.64009917,-0.40156317,-0.4299898,17.58124068,78.12102012,454.705078125
-1.3017418,-0.020825386,0.0991478,17.58124068,78.12102012,454.705078125
-1.7404611,-0.3948474,-0.5209093,17.58124068,78.12102012,454.705078125
-1.1037942,-0.24201298,1.0193634,17.58124068,78.12102012,454.705078125
0.33848047,0.17503643,1.4923725,17.58124068,78.12102012,454.705078125
0.2335811,-0.40374374,1.3867683,17.58124068,78.12102012,454.705078125
-0.20349275,-1.14096,-2.183689,17.58124068,78.12102012,454.705078125
-0.75142705,-0.2826209,1.6816406,17.58124068,78.12102012,454.705078125
0.31503206,-0.71740484,-0.78958416,17.58128404,78.1210437,454.05908203125
0.6128005,-0.60089827,0.18415356,17.58128404,78.1210437,454.05908203125
0.036210448,-0.89568853,-0.6931648,17.58128404,78.1210437,454.05908203125
-0.63933754,-0.21601152,0.48596668,17.58128404,78.1210437,454.05908203125
-0.5196998,-0.3285594,-0.16117382,17.58128404,78.1210437,454.05908203125
-0.428984,-0.4747982,-0.44738865,17.58128404,78.1210437,454.05908203125
-0.31698328,-0.44863892,0.041165352,17.58128404,78.1210437,454.05908203125
0.29574603,-0.23071957,0.67988014,17.58128404,78.1210437,454.05908203125
-0.7039013,-0.06696892,1.1325865,17.58128404,78.1210437,454.05908203125
0.5719088,-0.4244995,0.26283073,17.58128404,78.1210437,454.05908203125
0.73593915,-0.36862612,0.22418404,17.58131288,78.12104604,454.18524169921875
0.7804191,0.14668608,-0.051953316,17.58131288,78.12104604,454.18524169921875
-0.5919621,0.08003569,-0.82470894,17.58131288,78.12104604,454.18524169921875
0.36867207,0.20117378,-0.29420567,17.58131288,78.12104604,454.18524169921875
0.61608803,-0.37265062,-0.6921139,17.58131288,78.12104604,454.18524169921875
0.5592221,0.20787716,0.24948025,17.58131288,78.12104604,454.18524169921875
-0.28718194,0.23133135,-0.40677643,17.58131288,78.12104604,454.18524169921875
-0.1614303,0.14566612,0.014433861,17.58131288,78.12104604,454.18524169921875
-0.22465771,-0.03612995,-0.22095871,17.58131288,78.12104604,454.18524169921875
0.31650487,0.27325678,0.044962883,17.58134108,78.12105487,453.711181640625
0.07859698,0.18622303,0.2048893,17.58134108,78.12105487,453.711181640625
0.34006596,-0.11176491,-0.39335823,17.58134108,78.12105487,453.711181640625
0.6320741,0.16364956,0.27894592,17.58134108,78.12105487,453.711181640625
0.58264637,0.24165201,0.35410023,17.58134108,78.12105487,453.711181640625
0.28948373,0.18652773,0.13392639,17.58134108,78.12105487,453.711181640625
-0.24113241,-0.24745321,-0.8410673,17.58134108,78.12105487,453.711181640625
0.26795715,-0.05278063,-0.06553936,17.58134108,78.12105487,453.711181640625
0.3730224,0.13256073,0.7184973,17.58134108,78.12105487,453.711181640625
0.391273,0.06289101,0.89604664,17.58134108,78.12105487,453.711181640625
0.6192585,-0.6286216,-1.0414076,17.58136788,78.12105285,454.3258056640625
-0.026818573,-0.5043402,0.5214796,17.58136788,78.12105285,454.3258056640625
0.54827017,0.34419394,-0.44804478,17.58136788,78.12105285,454.3258056640625
0.5216016,0.006175041,-1.1327071,17.58136788,78.12105285,454.3258056640625
0.042303786,-0.18930578,-0.7132807,17.58136788,78.12105285,454.3258056640625
0.5524447,0.038467407,-0.048381805,17.58136788,78.12105285,454.3258056640625
0.3363248,0.10890579,1.2893934,17.58136788,78.12105285,454.3258056640625
0.83602077,3.7145615E-4,-0.5073919,17.58136788,78.12105285,454.3258056640625
0.45692816,-0.4002633,-0.97395325,17.58136788,78.12105285,454.3258056640625
0.07687765,-0.32592297,0.06512642,17.58136788,78.12105285,454.3258056640625
0.4850809,0.25471067,-0.42125702,17.58140413,78.12105467,454.83392333984375
0.2849843,0.3092246,-0.552022,17.58140413,78.12105467,454.83392333984375
-0.1367051,0.27213717,0.5768776,17.58140413,78.12105467,454.83392333984375
0.06699219,0.34922457,0.16907215,17.58140413,78.12105467,454.83392333984375
1.1058584,0.6601834,1.6150227,17.58140413,78.12105467,454.83392333984375
0.11421424,-0.4487381,-1.6312723,17.58140413,78.12105467,454.83392333984375
-1.7831838,-0.33448505,0.11325836,17.58140413,78.12105467,454.83392333984375
-0.12531021,0.38199186,-0.17263031,17.58140413,78.12105467,454.83392333984375
1.2907617,0.009115696,-0.36352348,17.58140413,78.12105467,454.83392333984375
-0.96413916,0.26568556,1.0863161,17.581438,78.12105659,453.6317138671875
0.32864526,0.13576174,0.7053366,17.581438,78.12105659,453.6317138671875
1.1618321,-0.69957733,-1.8253498,17.581438,78.12105659,453.6317138671875
-1.0401261,0.036661148,0.8458042,17.581438,78.12105659,453.6317138671875
0.45127285,0.4122963,0.5554266,17.581438,78.12105659,453.6317138671875
0.3585466,0.19294071,0.23465633,17.581438,78.12105659,453.6317138671875
0.04269059,-0.51974726,-0.36396408,17.581438,78.12105659,453.6317138671875
0.6688052,-0.12695694,0.36382675,17.581438,78.12105659,453.6317138671875
-0.35599738,0.11778593,0.5587206,17.581438,78.12105659,453.6317138671875
-0.07597706,-0.14667416,-0.19129944,17.581438,78.12105659,453.6317138671875
0.3285793,0.11482954,0.69199085,17.5814793,78.12106284,453.61920166015625
0.46395838,-0.8243165,-0.6596756,17.5814793,78.12106284,453.61920166015625
-1.1582489,0.15185118,0.017526627,17.5814793,78.12106284,453.61920166015625
0.43001768,0.600296,-1.0559831,17.5814793,78.12106284,453.61920166015625
0.8861151,-0.08665609,-0.077077866,17.5814793,78.12106284,453.61920166015625
-0.61305016,-0.530077,0.3496046,17.5814793,78.12106284,453.61920166015625
-1.0241182,-0.08532095,-0.28647614,17.5814793,78.12106284,453.61920166015625
0.08411601,0.19993782,0.7430382,17.5814793,78.12106284,453.61920166015625
-0.22412716,-0.33734608,0.7046547,17.5814793,78.12106284,453.61920166015625
-0.7531242,-0.0867548,-2.1764193,17.5814793,78.12106284,453.61920166015625
0.50512457,-0.10418272,-0.27597523,17.58152289,78.12107123,453.3294677734375
-0.9504601,-0.9605379,-2.2455144,17.58152289,78.12107123,453.3294677734375
-0.02520638,-0.5160961,0.73465157,17.58152289,78.12107123,453.3294677734375
-0.20005888,0.62572956,0.22140598,17.58152289,78.12107123,453.3294677734375
0.6750699,0.7379427,1.9168673,17.58152289,78.12107123,453.3294677734375
-0.36677772,-0.788919,-0.9827223,17.58152289,78.12107123,453.3294677734375
0.31244466,-0.2731905,-0.07722473,17.58152289,78.12107123,453.3294677734375
-0.42140687,-0.63793135,-0.033499718,17.58152289,78.12107123,453.3294677734375
-0.64793915,-0.034508705,0.028648376,17.58152289,78.12107123,453.3294677734375
0.6987286,-0.38920212,-1.9699483,17.58158331,78.1210924,453.93701171875
1.6652173,-0.721437,0.5275631,17.58158331,78.1210924,453.93701171875
-1.4164805,-0.1268239,1.9950123,17.58158331,78.1210924,453.93701171875
-1.5188462,-0.17011786,-1.8022795,17.58158331,78.1210924,453.93701171875
1.1477811,-0.3874998,-0.023056984,17.58158331,78.1210924,453.93701171875
-0.87260234,-0.31894255,0.34433937,17.58158331,78.1210924,453.93701171875
-0.39616722,-0.79875183,0.7877054,17.58158331,78.1210924,453.93701171875
0.8822627,-0.16004515,0.3184433,17.58158331,78.1210924,453.93701171875
-0.49886498,-0.258893,1.0092258,17.58158331,78.1210924,453.93701171875
-0.13857715,-0.113601685,0.25504303,17.58158331,78.1210924,453.93701171875
-1.9021845,-0.7673683,-1.2850595,17.58164693,78.12110865,454.7926025390625
0.54492277,-1.015379,0.029050827,17.58164693,78.12110865,454.7926025390625
-0.685918,0.055386543,0.051467896,17.58164693,78.12110865,454.7926025390625
-0.95932025,0.38045454,0.5042858,17.58164693,78.12110865,454.7926025390625
0.9259146,-0.73262453,-0.5285444,17.58164693,78.12110865,454.7926025390625
-1.0100586,-0.21399784,0.015616417,17.58164693,78.12110865,454.7926025390625
0.30122495,0.3622055,0.2230053,17.58164693,78.12110865,454.7926025390625
-0.11735466,-0.3866558,-0.1849556,17.58164693,78.12110865,454.7926025390625
-1.2427276,-0.50193787,-0.5064926,17.58164693,78.12110865,454.7926025390625
-0.45102257,-0.22825575,1.0057259,17.58169421,78.12112405,453.8419189453125
-0.12008017,-0.3722906,-2.2935023,17.58169421,78.12112405,453.8419189453125
-1.683776,0.63672733,1.1908083,17.58169421,78.12112405,453.8419189453125
-0.20894784,-0.048953056,-0.19829369,17.58169421,78.12112405,453.8419189453125
-0.52875465,-0.7961552,-0.33755398,17.58169421,78.12112405,453.8419189453125
-0.8596655,1.0761838,2.5095472,17.58169421,78.12112405,453.8419189453125
1.1250798,0.2856245,0.8772955,17.58169421,78.12112405,453.8419189453125
-1.1744692,-0.50785303,-1.0463924,17.58169421,78.12112405,453.8419189453125
-0.84082454,0.3475151,1.0992384,17.58169421,78.12112405,453.8419189453125
-0.04757923,-0.7466955,-1.1340246,17.58169421,78.12112405,453.8419189453125
-0.7358968,0.5407176,0.5223532,17.58174224,78.12113296,453.2593994140625
-0.17122096,-0.4896531,-0.3842001,17.58174224,78.12113296,453.2593994140625
0.05633688,-0.49122334,-0.60315704,17.58174224,78.12113296,453.2593994140625
-0.6848883,0.26528025,1.8243656,17.58174224,78.12113296,453.2593994140625
1.3654495,-0.5626788,-2.2406182,17.58174224,78.12113296,453.2593994140625
-1.7784449,-0.08603716,-0.63291264,17.58174224,78.12113296,453.2593994140625
-1.3118174,0.46182013,2.124961,17.58174224,78.12113296,453.2593994140625
0.14365399,-0.11784506,0.84932613,17.58174224,78.12113296,453.2593994140625
0.69868803,-0.12719822,0.10715771,17.58174224,78.12113296,453.2593994140625
-0.6151266,-0.25091553,0.5347185,17.58179873,78.12114145,452.4691162109375
0.1772734,0.63859653,1.7571745,17.58179873,78.12114145,452.4691162109375
0.47144073,-0.8563242,-1.7841644,17.58179873,78.12114145,452.4691162109375
-1.2509141,0.20321417,0.65534973,17.58179873,78.12114145,452.4691162109375
0.86429524,0.115626335,0.20096302,17.58179873,78.12114145,452.4691162109375
1.2200787,0.22944498,3.771305,17.58179873,78.12114145,452.4691162109375
1.3997096,-1.116003,-3.1819205,17.58179873,78.12114145,452.4691162109375
-3.0177252,-0.50127125,-1.2613406,17.58179873,78.12114145,452.4691162109375
-1.0327373,0.24869204,1.3792629,17.58179873,78.12114145,452.4691162109375
3.0078418,0.97287273,1.1545,17.58179873,78.12114145,452.4691162109375
0.49429807,-0.20308352,0.5063915,17.58184284,78.12114601,452.127685546875
-0.054317772,-0.039502144,1.8156624,17.58184284,78.12114601,452.127685546875
-0.71040004,-0.6210165,-1.5031977,17.58184284,78.12114601,452.127685546875
-0.55399495,0.4040537,0.9216709,17.58184284,78.12114601,452.127685546875
0.6265098,-0.17475224,0.21102142,17.58184284,78.12114601,452.127685546875
-0.22539458,-0.44049883,0.8744173,17.58184284,78.12114601,452.127685546875
-0.79166824,0.39608097,0.3775568,17.58184284,78.12114601,452.127685546875
0.80137,0.057344437,0.040000916,17.58184284,78.12114601,452.127685546875
-0.2265862,0.2303915,-1.366796,17.58184284,78.12114601,452.127685546875
0.4951155,0.12422085,-0.30537224,17.58184284,78.12114601,452.127685546875
0.13822684,-0.15580988,0.5284548,17.58189907,78.12114114,452.4908447265625
-0.4646966,0.23230219,0.95084286,17.58189907,78.12114114,452.4908447265625
0.15056348,0.17104578,0.03180313,17.58189907,78.12114114,452.4908447265625
-0.9614107,-0.06739521,-0.47347355,17.58189907,78.12114114,452.4908447265625
0.99505514,0.04715824,-1.7955294,17.58189907,78.12114114,452.4908447265625
0.80117387,-0.33179808,0.01792717,17.58189907,78.12114114,452.4908447265625
0.71988493,-0.64897966,0.25073433,17.58189907,78.12114114,452.4908447265625
-1.3605471,0.17589808,0.57280636,17.58189907,78.12114114,452.4908447265625
0.3648308,0.37032652,-0.26386547,17.58189907,78.12114114,452.4908447265625
1.0945807,-1.1100214,-2.2978559,17.58195621,78.12114034,453.46551513671875
-0.6905783,-0.38134766,0.39433575,17.58195621,78.12114034,453.46551513671875
0.3225332,-0.5485201,-0.023492813,17.58195621,78.12114034,453.46551513671875
-0.53138465,-0.5333123,0.044901848,17.58195621,78.12114034,453.46551513671875
0.76776266,0.23377228,1.2662926,17.58195621,78.12114034,453.46551513671875
-0.3551576,-0.011212349,-0.16681862,17.58195621,78.12114034,453.46551513671875
-0.42981297,0.40854836,0.45897388,17.58195621,78.12114034,453.46551513671875
0.9547025,-0.9072745,-0.044462204,17.58195621,78.12114034,453.46551513671875
-0.57167035,-0.49067926,0.6799507,17.58195621,78.12114034,453.46551513671875
0.3168391,0.26055908,0.24214363,17.58195621,78.12114034,453.46551513671875
0.40563518,-0.35115385,-0.8224392,17.58201074,78.12114221,454.6741943359375
-0.75141495,-0.1284709,0.93300915,17.58201074,78.12114221,454.6741943359375
-0.22358763,-0.080201626,-0.57064915,17.58201074,78.12114221,454.6741943359375
0.53514576,-0.38239956,0.69802856,17.58201074,78.12114221,454.6741943359375
-0.6050282,-0.11047363,0.720067,17.58201074,78.12114221,454.6741943359375
-0.9215996,-0.02833414,-0.3292694,17.58201074,78.12114221,454.6741943359375
0.9556495,0.15466309,-0.2657385,17.58201074,78.12114221,454.6741943359375
0.81221014,0.032452106,0.008646011,17.58201074,78.12114221,454.6741943359375
-0.0888356,-0.42801714,-0.32483196,17.58201074,78.12114221,454.6741943359375
-0.40058565,-0.68916845,0.4790411,17.58201074,78.12114221,454.6741943359375
-0.68753755,-0.6788783,-0.9487753,17.58205267,78.12113795,453.97369384765625
0.6265633,-0.41727924,0.5108299,17.58205267,78.12113795,453.97369384765625
-1.0527587,0.4527135,0.73523617,17.58205267,78.12113795,453.97369384765625
0.08315444,-0.16585875,0.8896265,17.58205267,78.12113795,453.97369384765625
-0.65087336,-0.719398,-0.50576496,17.58205267,78.12113795,453.97369384765625
-0.05186987,-0.018145084,0.25489044,17.58205267,78.12113795,453.97369384765625
-0.06427902,0.055912495,-0.16839218,17.58205267,78.12113795,453.97369384765625
0.40054592,-0.22042227,-0.07277393,17.58205267,78.12113795,453.97369384765625
-0.5261414,-0.22075939,0.34741879,17.58205267,78.12113795,453.97369384765625
-0.85134655,0.16665506,-0.35565186,17.58211418,78.12113766,454.2767333984375
0.85594326,0.101839066,0.6270199,17.58211418,78.12113766,454.2767333984375
0.014619589,-0.55591583,-0.03183937,17.58211418,78.12113766,454.2767333984375
-1.9929898,0.10402298,-0.9206095,17.58211418,78.12113766,454.2767333984375
-0.23041284,0.6829581,0.2661276,17.58211418,78.12113766,454.2767333984375
1.1218016,-0.07306671,-0.9206543,17.58211418,78.12113766,454.2767333984375
-0.21527916,-0.76035476,0.14703465,17.58211418,78.12113766,454.2767333984375
-0.440571,0.3283291,1.9736338,17.58211418,78.12113766,454.2767333984375
0.031232476,-0.36774206,-0.230793,17.58211418,78.12113766,454.2767333984375
-0.77417374,0.17870331,0.24901867,17.58211418,78.12113766,454.2767333984375
0.2350195,-0.096853256,-0.5677204,17.58216888,78.12113077,454.0250244140625
-0.09541476,-0.1307106,-0.31899452,17.58216888,78.12113077,454.0250244140625
0.05740732,0.20526218,0.31959534,17.58216888,78.12113077,454.0250244140625
0.37425423,-0.111840725,0.03299427,17.58216888,78.12113077,454.0250244140625
-0.7944455,-0.43518543,-0.5641413,17.58216888,78.12113077,454.0250244140625
-0.81099904,0.33056784,1.0391722,17.58216888,78.12113077,454.0250244140625
0.79979557,-0.3422513,-0.12933064,17.58216888,78.12113077,454.0250244140625
-1.3170323,-0.016596317,0.42280865,17.58216888,78.12113077,454.0250244140625
0.633721,0.079864025,-0.24929905,17.58216888,78.12113077,454.0250244140625
-0.39135277,-0.32138538,-0.21998215,17.58216888,78.12113077,454.0250244140625
0.44355962,0.10371256,-0.3187008,17.58222326,78.1211248,453.8294677734375
0.09352332,-0.13380432,-0.08487415,17.58222326,78.1211248,453.8294677734375
-0.45665145,-0.03441763,-0.5811472,17.58222326,78.1211248,453.8294677734375
0.8560385,0.1522584,1.0624495,17.58222326,78.1211248,453.8294677734375
-0.43472904,-0.2700553,-0.48488903,17.58222326,78.1211248,453.8294677734375
-1.8204988,-0.07812214,-0.17672825,17.58222326,78.1211248,453.8294677734375
0.70610535,0.6905732,0.10263634,17.58222326,78.1211248,453.8294677734375
1.15291,-0.18302059,-1.101304,17.58222326,78.1211248,453.8294677734375
-1.8669509,-0.4177928,-0.018868446,17.58222326,78.1211248,453.8294677734375
1.41861,0.19411802,-0.83595467,17.58227848,78.121124,454.6883544921875
-0.7042699,0.3921442,0.1743908,17.58227848,78.121124,454.6883544921875
-0.4668362,-0.36854458,-1.116313,17.58227848,78.121124,454.6883544921875
-0.22599745,0.4331422,-0.83148193,17.58227848,78.121124,454.6883544921875
-0.3128183,-0.16273355,0.77997684,17.58227848,78.121124,454.6883544921875
-0.29151762,0.09413338,0.42140675,17.58227848,78.121124,454.6883544921875
-0.38684618,0.51361084,0.87141895,17.58227848,78.121124,454.6883544921875
-0.5965884,0.59867334,0.040747643,17.58227848,78.121124,454.6883544921875
-0.59523845,0.6540971,0.47163582,17.58227848,78.121124,454.6883544921875
0.87352866,0.45852518,-0.32267475,17.58234299,78.12111493,454.72998046875
0.1666193,0.3125806,0.0018005371,17.58234299,78.12111493,454.72998046875
-0.73204494,-0.024211407,1.6344461,17.58234299,78.12111493,454.72998046875
-1.4308794,-0.34016466,-0.9474621,17.58234299,78.12111493,454.72998046875
-0.9845557,1.0172019,0.83389664,17.58234299,78.12111493,454.72998046875
0.68627256,-0.18403292,-0.8640661,17.58234299,78.12111493,454.72998046875
-2.0333498,-0.087841034,-0.6164913,17.58234299,78.12111493,454.72998046875
-0.29675877,0.85723543,0.5623932,17.58234299,78.12111493,454.72998046875
1.026298,0.66744137,0.1287899,17.58234299,78.12111493,454.72998046875
2.3518014,-0.32211208,-0.7842331,17.58234299,78.12111493,454.72998046875
-2.368369,0.020955086,1.4445553,17.58239652,78.12110425,454.1280517578125
-0.013278604,0.4824872,-0.4160204,17.58239652,78.12110425,454.1280517578125
-0.3028164,-0.017809868,-0.48067188,17.58239652,78.12110425,454.1280517578125
-0.25779128,-0.23482704,-1.3421378,17.58239652,78.12110425,454.1280517578125
0.25250477,-0.029346466,-0.3044529,17.58239652,78.12110425,454.1280517578125
0.023331165,0.8345647,0.58697224,17.58239652,78.12110425,454.1280517578125
0.22961354,0.01558876,-0.24978542,17.58239652,78.12110425,454.1280517578125
-0.76359653,-0.2954731,-0.3419199,17.58239652,78.12110425,454.1280517578125
-0.99842465,-0.0017967224,0.39138412,17.58239652,78.12110425,454.1280517578125
-0.8696215,-0.31412888,-0.98249435,17.58239652,78.12110425,454.1280517578125
-1.4660361,-0.36680794,-0.17073345,17.58246025,78.12108442,454.888916015625
-0.19072998,-0.04203129,1.0310068,17.58246025,78.12108442,454.888916015625
-0.85122454,0.42077827,0.5097246,17.58246025,78.12108442,454.888916015625
0.7675557,0.104531765,0.5278864,17.58246025,78.12108442,454.888916015625
-0.6792438,-0.82055616,-1.3261981,17.58246025,78.12108442,454.888916015625
-0.8606324,0.14339876,-0.038902283,17.58246025,78.12108442,454.888916015625
0.75219107,0.56659555,0.53714085,17.58246025,78.12108442,454.888916015625
-0.25145054,0.31047726,0.52271557,17.58246025,78.12108442,454.888916015625
-1.0396272,0.054339886,-0.26740456,17.58246025,78.12108442,454.888916015625
0.14184368,0.19502401,-0.18261433,17.58251354,78.1210594,454.4678955078125
0.8284038,0.121398926,0.15993404,17.58251354,78.1210594,454.4678955078125
-1.8612267,-0.6997328,-1.0606174,17.58251354,78.1210594,454.4678955078125
-1.3343134,-0.858011,-0.8110771,17.58251354,78.1210594,454.4678955078125
0.26113367,0.2800932,0.21783161,17.58251354,78.1210594,454.4678955078125
1.3412764,0.8641634,1.1831369,17.58251354,78.1210594,454.4678955078125
-1.1254666,-0.5336838,-0.9269266,17.58251354,78.1210594,454.4678955078125
-1.9948452,0.4894333,1.4899683,17.58251354,78.1210594,454.4678955078125
0.7946926,-0.050559044,-0.7323494,17.58251354,78.1210594,454.4678955078125
0.81031597,-0.0827322,0.73132133,17.58251354,78.1210594,454.4678955078125
-0.3642274,0.24771166,-0.10937405,17.58256469,78.12103311,453.3017578125
0.6845709,-0.3589306,-0.18776798,17.58256469,78.12103311,453.3017578125
1.3548417,0.17727661,2.8501997,17.58256469,78.12103311,453.3017578125
1.1866187,-0.20547438,-1.921217,17.58256469,78.12103311,453.3017578125
-0.16614354,0.4136443,-0.6950073,17.58256469,78.12103311,453.3017578125
0.18868494,-0.21896362,1.381218,17.58256469,78.12103311,453.3017578125
-1.1848708,-0.31393814,2.5224695,17.58256469,78.12103311,453.3017578125
-0.1496253,-0.0042500496,0.43580532,17.58256469,78.12103311,453.3017578125
1.1347978,-0.39451408,1.0417719,17.58256469,78.12103311,453.3017578125
0.34353256,-1.3784885,-1.5890083,17.5826118,78.12099588,452.591796875
-1.4641864,-1.1927974,-1.3683696,17.5826118,78.12099588,452.591796875
-0.86747956,0.26974487,0.21164036,17.5826118,78.12099588,452.591796875
1.0437095,0.69680166,1.1123066,17.5826118,78.12099588,452.591796875
2.2727187,0.91606903,0.18819046,17.5826118,78.12099588,452.591796875
2.1537468,-1.6404543,-0.2915182,17.5826118,78.12099588,452.591796875
-0.9164531,-0.7687893,-0.92191124,17.5826118,78.12099588,452.591796875
-0.85512114,-0.14295053,1.3155174,17.5826118,78.12099588,452.591796875
0.5311897,0.15351772,0.06910515,17.5826118,78.12099588,452.591796875
0.04040575,-0.21264458,-0.7140808,17.5826118,78.12099588,452.591796875
0.583871,0.7081013,1.25249,17.58266267,78.12096298,451.5611572265625
-0.6320353,-0.5184798,-1.0212831,17.58266267,78.12096298,451.5611572265625
-0.7058513,-0.05323744,0.5267229,17.58266267,78.12096298,451.5611572265625
0.878299,0.36108303,-0.24950504,17.58266267,78.12096298,451.5611572265625
0.88838995,-0.59626937,0.13567257,17.58266267,78.12096298,451.5611572265625
-1.5128381,0.30954123,1.6237392,17.58266267,78.12096298,451.5611572265625
0.89733315,-0.06462908,0.4972124,17.58266267,78.12096298,451.5611572265625
1.060508,-0.114257336,-0.55928135,17.58266267,78.12096298,451.5611572265625
-0.5362828,-0.19119835,-0.18733501,17.58266267,78.12096298,451.5611572265625
0.47895908,-0.75623107,0.031899452,17.58266267,78.12096298,451.5611572265625
-0.6215415,0.41501904,0.8820467,17.58271747,78.12093074,451.43524169921875
-0.22521448,0.5398407,-0.31113815,17.58271747,78.12093074,451.43524169921875
0.8889382,-0.25496197,0.078434944,17.58271747,78.12093074,451.43524169921875
-0.29927862,-0.28206682,-0.42327595,17.58271747,78.12093074,451.43524169921875
-0.30612206,0.29721022,-0.45500946,17.58271747,78.12093074,451.43524169921875
1.214844,-0.13760567,0.196311,17.58271747,78.12093074,451.43524169921875
-0.43093318,0.1627016,0.0758791,17.58271747,78.12093074,451.43524169921875
0.20144463,0.48798275,-0.05915165,17.58271747,78.12093074,451.43524169921875
0.8736114,-0.33924198,-1.2387867,17.58271747,78.12093074,451.43524169921875
0.069056034,0.12857914,0.22850227,17.58276866,78.12089389,451.61865234375
0.3434478,0.12069178,0.117996216,17.58276866,78.12089389,451.61865234375
0.31073046,0.45450068,-1.2202005,17.58276866,78.12089389,451.61865234375
0.5480744,-0.40876102,0.88134575,17.58276866,78.12089389,451.61865234375
-0.53744984,-0.1533413,-0.27745724,17.58276866,78.12089389,451.61865234375
-1.0265217,-0.043587208,0.6043625,17.58276866,78.12089389,451.61865234375
0.2747419,0.011931419,-0.6369791,17.58276866,78.12089389,451.61865234375
0.3474872,-0.2933936,-0.20391464,17.58276866,78.12089389,451.61865234375
-0.1598326,0.30686235,-0.3399582,17.58276866,78.12089389,451.61865234375
0.40226275,0.26234245,-0.8056812,17.58276866,78.12089389,451.61865234375
0.36992913,-0.73336244,0.2692833,17.58282463,78.12085959,450.577392578125
-1.2564487,0.37305593,1.3448982,17.58282463,78.12085959,450.577392578125
0.17332321,0.022389889,-0.92817116,17.58282463,78.12085959,450.577392578125
1.0452087,-0.4910245,-0.6665602,17.58282463,78.12085959,450.577392578125
-0.52513444,-0.3074541,0.1391449,17.58282463,78.12085959,450.577392578125
-0.36719948,0.58081913,1.2933388,17.58282463,78.12085959,450.577392578125
1.5101383,0.1505928,0.17112637,17.58282463,78.12085959,450.577392578125
-0.8596842,0.40513754,0.8384657,17.58282463,78.12085959,450.577392578125
-0.10998106,-0.029854774,-0.951972,17.58282463,78.12085959,450.577392578125
0.51922506,-0.6469319,-0.63289547,17.58288572,78.12082759,451.2186279296875
-1.1910938,-0.07289457,1.2453623,17.58288572,78.12082759,451.2186279296875
0.24927849,-0.11875439,-0.278821,17.58288572,78.12082759,451.2186279296875
0.17212862,-0.2325778,1.5877409,17.58288572,78.12082759,451.2186279296875
-0.7875904,-0.10791588,1.061305,17.58288572,78.12082759,451.2186279296875
0.22697753,0.40260744,0.89565754,17.58288572,78.12082759,451.2186279296875
0.37455422,-0.3527031,0.17522049,17.58288572,78.12082759,451.2186279296875
-0.6452836,-0.77506375,-0.39610767,17.58288572,78.12082759,451.2186279296875
-0.4392289,0.004690647,0.5814123,17.58288572,78.12082759,451.2186279296875
0.5271182,0.29255056,-0.5361805,17.58288572,78.12082759,451.2186279296875
0.15822178,-0.052470684,0.745697,17.58294599,78.12079541,452.32855224609375
-0.39632404,-0.13677979,-0.70475197,17.58294599,78.12079541,452.32855224609375
0.2214939,-0.39985323,-1.2996817,17.58294599,78.12079541,452.32855224609375
-0.29092622,-0.066426754,-0.23706436,17.58294599,78.12079541,452.32855224609375
0.9929454,-0.1282897,0.6400318,17.58294599,78.12079541,452.32855224609375
-0.7245654,0.39966106,0.10735798,17.58294599,78.12079541,452.32855224609375
0.9657448,0.26909113,0.78024864,17.58294599,78.12079541,452.32855224609375
0.6438682,0.16574001,-0.82969,17.58294599,78.12079541,452.32855224609375
-0.46371174,0.81371164,0.38743305,17.58294599,78.12079541,452.32855224609375
1.4134462,-0.021482944,-1.6650004,17.58300524,78.12076432,451.564453125
-0.31402862,-0.6191051,-0.39780903,17.58300524,78.12076432,451.564453125
-0.4770329,0.6798816,0.6107483,17.58300524,78.12076432,451.564453125
1.733592,-0.2241664,-1.206502,17.58300524,78.12076432,451.564453125
-0.7968104,0.3079524,0.7545376,17.58300524,78.12076432,451.564453125
0.3999018,-0.70052934,-0.061389923,17.58300524,78.12076432,451.564453125
-1.1056855,-0.19596815,-1.6798759,17.58300524,78.12076432,451.564453125
-0.50325835,0.5713186,0.0652132,17.58300524,78.12076432,451.564453125
0.7776774,0.4273944,0.116189,17.58300524,78.12076432,451.564453125
0.0051090717,0.2895398,-0.4703045,17.58300524,78.12076432,451.564453125
0.9657728,-0.44199705,0.033571243,17.58306307,78.12072802,451.2537841796875
-1.2226305,-0.9473491,0.029356003,17.58306307,78.12072802,451.2537841796875
-0.33645177,0.019676208,0.5257082,17.58306307,78.12072802,451.2537841796875
1.0233679,-0.24831104,-0.18745708,17.58306307,78.12072802,451.2537841796875
0.35927254,0.19167423,0.92436504,17.58306307,78.12072802,451.2537841796875
-0.6258999,-0.40554428,-0.23882675,17.58306307,78.12072802,451.2537841796875
-1.0617267,-0.45807266,-2.6068673,17.58306307,78.12072802,451.2537841796875
0.21889728,-0.22579956,1.1420088,17.58306307,78.12072802,451.2537841796875
0.6038665,-0.37288237,0.72725296,17.58306307,78.12072802,451.2537841796875
0.7308614,0.09465408,0.49698448,17.58306307,78.12072802,451.2537841796875
-1.2164258,0.37052584,0.24122715,17.58311252,78.12068887,450.1739501953125
0.62062377,-0.10250425,-0.90182304,17.58311252,78.12068887,450.1739501953125
-0.014630556,-0.23209715,0.407156,17.58311252,78.12068887,450.1739501953125
0.7169192,0.2190957,1.8006535,17.58311252,78.12068887,450.1739501953125
-0.12536299,-0.14806175,-0.13580418,17.58311252,78.12068887,450.1739501953125
0.0564878,0.4678607,0.42916393,17.58311252,78.12068887,450.1739501953125
-0.38354766,-1.1055329,-1.3005991,17.58311252,78.12068887,450.1739501953125
-0.7257349,-0.3665657,0.5697613,17.58311252,78.12068887,450.1739501953125
0.7640417,0.18969774,0.35279846,17.58311252,78.12068887,450.1739501953125
-0.17987806,-0.51351666,-1.685143,17.58316957,78.12065258,450.2239990234375
-0.4040674,-0.20362663,1.7281322,17.58316957,78.12065258,450.2239990234375
-1.2006831,-0.34087658,-1.1610832,17.58316957,78.12065258,450.2239990234375
-0.46100032,0.75559807,-0.59835815,17.58316957,78.12065258,450.2239990234375
0.84928244,-0.3847406,-1.7485375,17.58316957,78.12065258,450.2239990234375
-0.43829572,0.6422868,0.26307678,17.58316957,78.12065258,450.2239990234375
1.5192256,0.21877241,-1.112772,17.58316957,78.12065258,450.2239990234375
-0.46457,0.07185125,-3.2893658,17.58316957,78.12065258,450.2239990234375
-0.9594972,0.4326539,-1.0054302,17.58316957,78.12065258,450.2239990234375
0.28018206,1.4951949,2.404212,17.58316957,78.12065258,450.2239990234375
2.949068,0.5030432,0.30806828,17.58322974,78.12061304,451.081298828125
-0.15938938,0.30022192,-0.44915295,17.58322974,78.12061304,451.081298828125
-1.932867,-1.3276539,0.7875843,17.58322974,78.12061304,451.081298828125
-0.85245824,-0.9008584,-1.8101659,17.58322974,78.12061304,451.081298828125
-0.119829535,-0.77797127,-0.5569868,17.58322974,78.12061304,451.081298828125
0.42556208,-0.59795713,-0.69115543,17.58322974,78.12061304,451.081298828125
-1.1836694,0.8028879,0.8063688,17.58322974,78.12061304,451.081298828125
0.19071317,-1.1914294,-2.3045611,17.58322974,78.12061304,451.081298828125
-1.1288322,-0.38296437,0.50538635,17.58322974,78.12061304,451.081298828125
0.36790913,-0.32179594,-0.22308445,17.58322974,78.12061304,451.081298828125
-1.6072366,-0.32694054,-0.87335014,17.58329722,78.12057681,451.3272705078125
-0.27753627,-0.8203802,1.2863092,17.58329722,78.12057681,451.3272705078125
-1.3613212,0.061785698,0.37403393,17.58329722,78.12057681,451.3272705078125
0.34898067,-0.5756066,2.3298473,17.58329722,78.12057681,451.3272705078125
1.7382271,-0.5649097,-0.5911093,17.58329722,78.12057681,451.3272705078125
-2.0117292,-0.6587968,1.142519,17.58329722,78.12057681,451.3272705078125
1.0204362,1.1428862,1.4479876,17.58329722,78.12057681,451.3272705078125
0.6940261,0.6656418,1.6107225,17.58329722,78.12057681,451.3272705078125
0.8882735,-1.130002,0.14583588,17.58329722,78.12057681,451.3272705078125
-3.7562962,-0.86392784,0.16513062,17.58335943,78.12053885,451.1282958984375
-1.2885488,-0.11053562,-2.2369995,17.58335943,78.12053885,451.1282958984375
1.7441638,1.9927034,-0.6788759,17.58335943,78.12053885,451.1282958984375
2.7822156,-0.45514297,-1.112628,17.58335943,78.12053885,451.1282958984375
1.615016,-0.5363691,1.913372,17.58335943,78.12053885,451.1282958984375
-1.8708878,-1.1758773,-4.1977177,17.58335943,78.12053885,451.1282958984375
-2.228993,-0.052039146,0.5254774,17.58335943,78.12053885,451.1282958984375
1.2139125,0.41566133,-0.23182774,17.58335943,78.12053885,451.1282958984375
0.6164311,-0.031501293,-0.11895847,17.58335943,78.12053885,451.1282958984375
-0.34568262,-0.04267502,-0.5976658,17.58335943,78.12053885,451.1282958984375
0.13379025,0.11750841,-0.00719738,17.58342408,78.12050574,451.0877685546875
0.41246414,0.5819354,0.88908863,17.58342408,78.12050574,451.0877685546875
0.19472778,-0.61950684,-0.8824434,17.58342408,78.12050574,451.0877685546875
-0.9336401,0.17645454,0.68006325,17.58342408,78.12050574,451.0877685546875
1.1300473,-0.015227795,-0.98198605,17.58342408,78.12050574,451.0877685546875
0.761403,0.028126717,1.2293406,17.58342408,78.12050574,451.0877685546875
1.5485779,-0.2338171,-1.6924663,17.58342408,78.12050574,451.0877685546875
-0.33196008,-0.063951015,0.6902313,17.58342408,78.12050574,451.0877685546875
0.4700058,-0.42274928,-1.3504305,17.58342408,78.12050574,451.0877685546875
-0.18207192,0.953918,1.8652296,17.58349593,78.12046255,451.3834228515625
0.38488638,-0.33287287,-0.02215004,17.58349593,78.12046255,451.3834228515625
0.12702608,-0.10673666,-0.37958336,17.58349593,78.12046255,451.3834228515625
-0.6465106,-0.02536583,-0.77347565,17.58349593,78.12046255,451.3834228515625
-0.22480142,1.574892,1.2838974,17.58349593,78.12046255,451.3834228515625
2.3238184,0.113260746,0.40861797,17.58349593,78.12046255,451.3834228515625
0.5771905,0.6564903,0.77665806,17.58349593,78.12046255,451.3834228515625
-0.32412422,-1.3232615,-2.0753546,17.58349593,78.12046255,451.3834228515625
1.5775425,0.4796543,1.3765669,17.58349593,78.12046255,451.3834228515625
0.41531032,0.46435928,-0.18368435,17.58349593,78.12046255,451.3834228515625
0.6368916,0.2575493,-0.6684952,17.58356068,78.12042924,452.09429931640625
1.011266,0.28316402,0.021660805,17.58356068,78.12042924,452.09429931640625
0.09992635,-0.67066336,-2.2126632,17.58356068,78.12042924,452.09429931640625
0.64354795,0.5465975,0.3254938,17.58356068,78.12042924,452.09429931640625
0.5611354,-0.8568711,-0.60728455,17.58356068,78.12042924,452.09429931640625
0.16487345,0.14679813,0.5498829,17.58356068,78.12042924,452.09429931640625
1.9673508,0.36409855,1.2172499,17.58356068,78.12042924,452.09429931640625
1.0305701,-0.69405365,-0.39478588,17.58356068,78.12042924,452.09429931640625
0.07429516,-1.2848201,-0.19282627,17.58356068,78.12042924,452.09429931640625
-0.6769754,1.1833353,1.6219893,17.58356068,78.12042924,452.09429931640625
1.5673925,0.11153078,0.1723671,17.58362497,78.12040372,452.40771484375
1.1384255,0.2886119,-0.05084324,17.58362497,78.12040372,452.40771484375
-0.2931503,-0.8369436,-0.48082733,17.58362497,78.12040372,452.40771484375
0.6565915,1.0653539,0.5206547,17.58362497,78.12040372,452.40771484375
1.0400445,0.015615463,0.14004898,17.58362497,78.12040372,452.40771484375
-0.4934474,-0.23568869,-0.28401852,17.58362497,78.12040372,452.40771484375
0.50150406,0.08054018,0.20105934,17.58362497,78.12040372,452.40771484375
0.4900126,0.39008427,-0.21077633,17.58362497,78.12040372,452.40771484375
1.084307,0.74745846,-0.18967438,17.58362497,78.12040372,452.40771484375
0.033929065,-0.25966597,0.37149715,17.58370286,78.12038867,452.5054931640625
0.6059321,1.0484724,-0.06599808,17.58370286,78.12038867,452.5054931640625
-0.38756135,-0.36083078,-0.0087509155,17.58370286,78.12038867,452.5054931640625
0.42526796,-0.24874115,0.6621342,17.58370286,78.12038867,452.5054931640625
-0.08987796,1.3273726,0.676424,17.58370286,78.12038867,452.5054931640625
0.48702738,-1.292129,-0.8328676,17.58370286,78.12038867,452.5054931640625
-0.25451738,-0.123176575,0.044789314,17.58370286,78.12038867,452.5054931640625
-0.083820045,0.058809757,0.008119583,17.58370286,78.12038867,452.5054931640625
-0.15844384,-0.16931581,-0.1515894,17.58370286,78.12038867,452.5054931640625
-1.6241113,0.54406214,0.74275875,17.58370286,78.12038867,452.5054931640625
-0.41376132,-1.4907844,-0.904212,17.5837814,78.12037461,452.08673095703125
-0.6633784,0.43390417,-0.12591457,17.5837814,78.12037461,452.08673095703125
-0.36885533,-0.44996166,0.12924862,17.5837814,78.12037461,452.08673095703125
0.8191038,0.8385453,1.6118364,17.5837814,78.12037461,452.08673095703125
0.08980884,0.63127327,1.5161324,17.5837814,78.12037461,452.08673095703125
-1.6500251,-0.18938923,0.15575027,17.5837814,78.12037461,452.08673095703125
-0.52791256,-0.9598274,-0.887331,17.5837814,78.12037461,452.08673095703125
0.2602338,-1.726865,-1.3853588,17.5837814,78.12037461,452.08673095703125
-0.4096742,0.47882652,0.11590481,17.5837814,78.12037461,452.08673095703125
-0.18173134,1.1962748,1.6267166,17.5837814,78.12037461,452.08673095703125
0.8614924,-0.105353355,-0.32514954,17.58385254,78.12036908,451.824951171875
-0.7546017,-1.261699,-0.9092684,17.58385254,78.12036908,451.824951171875
-0.76414067,0.044105053,1.6187906,17.58385254,78.12036908,451.824951171875
1.2352953,0.8364992,0.7092161,17.58385254,78.12036908,451.824951171875
-0.11405307,-1.5112181,-1.1184754,17.58385254,78.12036908,451.824951171875
-1.31643,0.48502207,0.87253,17.58385254,78.12036908,451.824951171875
-1.619802,0.12032318,1.0573254,17.58385254,78.12036908,451.824951171875
-0.82631844,-1.315836,-0.062238693,17.58385254,78.12036908,451.824951171875
-1.560001,-0.10039997,0.3923893,17.58385254,78.12036908,451.824951171875
-1.4123884,-0.3003435,-0.215765,17.58393715,78.12036727,451.88531494140625
-0.16923624,-0.61837006,0.12595177,17.58393715,78.12036727,451.88531494140625
-0.1385001,-0.35943365,0.06314087,17.58393715,78.12036727,451.88531494140625
-1.3165076,0.23085833,-0.17823505,17.58393715,78.12036727,451.88531494140625
-0.42014813,1.1977196,1.7961121,17.58393715,78.12036727,451.88531494140625
1.0132169,1.0777788,-0.19966888,17.58393715,78.12036727,451.88531494140625
0.13597876,-0.41933823,-0.6095457,17.58393715,78.12036727,451.88531494140625
-1.3672683,-0.36715984,-0.11937523,17.58393715,78.12036727,451.88531494140625
-0.5387749,-0.18629217,-0.22002506,17.58393715,78.12036727,451.88531494140625
1.1504565,-0.16322994,0.8196516,17.58393715,78.12036727,451.88531494140625
1.5660868,0.6475625,-0.6640148,17.58401538,78.12036642,452.04998779296875
-0.9011712,1.0055366,-0.19400501,17.58401538,78.12036642,452.04998779296875
0.12566644,1.3302627,0.5098181,17.58401538,78.12036642,452.04998779296875
0.61131746,-1.2531683,-0.07949829,17.58401538,78.12036642,452.04998779296875
-0.8597025,-0.916677,-2.9024491,17.58401538,78.12036642,452.04998779296875
-0.53046554,0.23777056,1.3258648,17.58401538,78.12036642,452.04998779296875
-0.22683749,0.53678703,-0.10298824,17.58401538,78.12036642,452.04998779296875
-0.046185583,-1.1057925,0.03904724,17.58401538,78.12036642,452.04998779296875
-0.24136746,1.1759086,-3.642375,17.58401538,78.12036642,452.04998779296875
1.4205711,1.6387138,0.74377537,17.58401538,78.12036642,452.04998779296875
0.65748346,-0.035770416,-2.5912971,17.58409335,78.12036816,452.16650390625
-0.92482245,-0.44609165,0.66555214,17.58409335,78.12036816,452.16650390625
-2.7800267,0.5160322,0.42564106,17.58409335,78.12036816,452.16650390625
0.25602493,-1.0880232,-0.79297066,17.58409335,78.12036816,452.16650390625
-0.06059128,-2.580323,-1.3761377,17.58409335,78.12036816,452.16650390625
-0.18554641,2.4222908,1.4341364,17.58409335,78.12036816,452.16650390625
-1.4641068,-0.21285439,2.4860306,17.58409335,78.12036816,452.16650390625
1.4850539,-2.0696423,0.24483013,17.58409335,78.12036816,452.16650390625
0.6422828,0.47406006,-2.0860085,17.58409335,78.12036816,452.16650390625
-0.8626876,0.9073572,2.4022923,17.58416295,78.12036388,452.291748046875
0.51455927,-0.014973164,1.6225643,17.58416295,78.12036388,452.291748046875
2.050685,-0.14129639,0.8921881,17.58416295,78.12036388,452.291748046875
-1.1054034,-1.273943,0.009361267,17.58416295,78.12036388,452.291748046875
-0.95637816,-0.09381056,1.7527304,17.58416295,78.12036388,452.291748046875
0.38948613,0.9952369,0.94432926,17.58416295,78.12036388,452.291748046875
-0.2816619,-0.5728116,0.18474579,17.58416295,78.12036388,452.291748046875
-0.71818465,-0.5944214,-0.3245058,17.58416295,78.12036388,452.291748046875
0.23771535,-0.21309996,0.0067806244,17.58416295,78.12036388,452.291748046875
-0.31284866,-0.61658764,-0.04670334,17.58416295,78.12036388,452.291748046875
-0.037225038,-0.19822502,1.0957232,17.58422991,78.12036847,452.73370361328125
0.04785204,-0.10458279,0.2779436,17.58422991,78.12036847,452.73370361328125
-0.28647792,-0.009052277,0.32645893,17.58422991,78.12036847,452.73370361328125
-0.49770498,0.040071487,-0.4311905,17.58422991,78.12036847,452.73370361328125
-0.029816747,-0.5762644,1.3613567,17.58422991,78.12036847,452.73370361328125
0.3447396,-0.4020505,0.04325962,17.58422991,78.12036847,452.73370361328125
-1.1721021,-0.04817629,0.48708057,17.58422991,78.12036847,452.73370361328125
0.4053767,-0.32982588,-0.22152233,17.58422991,78.12036847,452.73370361328125
1.2016821,-0.39432335,0.11569691,17.58422991,78.12036847,452.73370361328125
-0.5377708,-0.18521595,-0.703022,17.58429679,78.12036643,452.955810546875
-0.91210675,-0.5317912,0.72555256,17.58429679,78.12036643,452.955810546875
0.59464794,-0.015157223,-0.0036296844,17.58429679,78.12036643,452.955810546875
-0.22181565,0.0539999,0.49169827,17.58429679,78.12036643,452.955810546875
0.25471106,-0.35862112,-0.48118687,17.58429679,78.12036643,452.955810546875
-0.8971857,-0.08350372,0.2589035,17.58429679,78.12036643,452.955810546875
0.17119288,-0.28153324,0.037160873,17.58429679,78.12036643,452.955810546875
0.26202354,0.058131695,-0.29375362,17.58429679,78.12036643,452.955810546875
-0.11351311,-0.028847218,0.30985737,17.58429679,78.12036643,452.955810546875
-0.8338029,-0.5651202,-0.2159729,17.58429679,78.12036643,452.955810546875
-0.111394584,0.042079926,0.56666565,17.58436211,78.12036695,453.5528564453125
1.2000126,-0.30381775,-0.18693066,17.58436211,78.12036695,453.5528564453125
-1.0206951,-0.2682867,-0.15808487,17.58436211,78.12036695,453.5528564453125
-0.88624996,0.20313025,0.6176243,17.58436211,78.12036695,453.5528564453125
1.1543883,0.073112965,0.53687954,17.58436211,78.12036695,453.5528564453125
0.403693,0.017524242,-0.63938427,17.58436211,78.12036695,453.5528564453125
-0.4900226,-0.8780744,0.33006477,17.58436211,78.12036695,453.5528564453125
-0.35877478,-0.41488934,1.2883329,17.58436211,78.12036695,453.5528564453125
-0.62491477,-0.6312146,-0.05105114,17.58436211,78.12036695,453.5528564453125
0.46745256,-0.56183434,-0.021292686,17.58436211,78.12036695,453.5528564453125
0.60435927,-0.54421234,0.028841019,17.58442112,78.12036749,451.951416015625
-0.10552126,-0.060816288,0.2845745,17.58442112,78.12036749,451.951416015625
-0.042930722,0.013092041,0.058603287,17.58442112,78.12036749,451.951416015625
0.23915306,-0.62029696,0.021726608,17.58442112,78.12036749,451.951416015625
-0.7051929,-0.34263277,0.47106266,17.58442112,78.12036749,451.951416015625
-0.2306965,-0.43088818,0.45622635,17.58442112,78.12036749,451.951416015625
0.6960194,0.13000298,-0.14769554,17.58442112,78.12036749,451.951416015625
0.03643155,-0.13813305,0.46872807,17.58442112,78.12036749,451.951416015625
0.16021031,0.17118073,0.461195,17.58442112,78.12036749,451.951416015625
0.60676056,-0.3746519,-0.22023869,17.58445662,78.12036122,451.7230224609375
-0.25342113,-0.1543312,0.4333048,17.58445662,78.12036122,451.7230224609375
0.0996241,0.50920486,0.44005394,17.58445662,78.12036122,451.7230224609375
1.1929979,-0.16543913,-0.41308117,17.58445662,78.12036122,451.7230224609375
-0.07109374,0.045074463,-0.37523174,17.58445662,78.12036122,451.7230224609375
-1.1837404,-0.22186852,0.38039494,17.58445662,78.12036122,451.7230224609375
0.008751273,-0.3051648,0.18387127,17.58445662,78.12036122,451.7230224609375
-0.65704757,-0.28458548,-0.59471416,17.58445662,78.12036122,451.7230224609375
-1.2582631,-0.34038377,0.5438261,17.58445662,78.12036122,451.7230224609375
0.12925804,-0.15673542,0.29054642,17.58445662,78.12036122,451.7230224609375
-0.4043584,0.017713547,-0.11187935,17.58450065,78.12035691,452.334716796875
-0.45962936,-0.27866936,-0.13864899,17.58450065,78.12035691,452.334716796875
-0.15981895,-0.013566017,-0.0030488968,17.58450065,78.12035691,452.334716796875
0.5151964,-0.515908,-0.034770012,17.58450065,78.12035691,452.334716796875
-0.36690223,0.0047826767,0.2990694,17.58450065,78.12035691,452.334716796875
0.2672348,-0.24888992,0.22765255,17.58450065,78.12035691,452.334716796875
0.32977206,0.17648411,2.6846895,17.58450065,78.12035691,452.334716796875
-0.3867966,0.42590046,0.7813492,17.58450065,78.12035691,452.334716796875
-1.1879517,-0.20728564,-1.1081991,17.58450065,78.12035691,452.334716796875
-1.1833909,-0.48977947,-1.198823,17.5845286,78.12035994,452.7003173828125
-0.21949524,-0.8563132,-0.23028469,17.5845286,78.12035994,452.7003173828125
0.02360928,-0.5327461,0.46755695,17.5845286,78.12035994,452.7003173828125
-0.37457198,-0.6227746,0.66722965,17.5845286,78.12035994,452.7003173828125
-0.43419608,0.0028150082,0.8148203,17.5845286,78.12035994,452.7003173828125
0.023532152,-0.40279436,0.2742262,17.5845286,78.12035994,452.7003173828125
-0.39608783,-0.632715,-0.15289688,17.5845286,78.12035994,452.7003173828125
-0.043020755,-0.38997912,-0.2772398,17.5845286,78.12035994,452.7003173828125
0.43106878,0.09276438,0.049505234,17.5845286,78.12035994,452.7003173828125
-1.1364788,-0.44888234,1.003974,17.5845286,78.12035994,452.7003173828125
1.0489328,1.0897331,0.14587879,17.58459196,78.12034698,452.5283203125
0.6693524,0.4498539,-2.188859,17.58459196,78.12034698,452.5283203125
0.107628465,0.23746586,-2.1230316,17.58459196,78.12034698,452.5283203125
0.55834436,0.7657528,-3.868703,17.58459196,78.12034698,452.5283203125
-2.9170945,2.3949308,0.7170963,17.58459196,78.12034698,452.5283203125
-1.0733254,2.6525044,0.9952431,17.58459196,78.12034698,452.5283203125
-0.052544773,1.5491385,-0.29540157,17.58459196,78.12034698,452.5283203125
-1.0760595,-0.16353941,0.71811485,17.58459196,78.12034698,452.5283203125
2.776248,-0.39962506,-1.7379708,17.58459196,78.12034698,452.5283203125
1.0126126,-0.6566446,-1.8915563,17.58459196,78.12034698,452.5283203125
-0.3183934,1.3093605,-0.92622185,17.58463022,78.12035221,451.6893310546875
-0.29328948,1.6274314,-1.3814039,17.58463022,78.12035221,451.6893310546875
-2.0897782,2.1151848,0.46313763,17.58463022,78.12035221,451.6893310546875
-0.30892187,1.4590364,0.43312836,17.58463022,78.12035221,451.6893310546875
0.3266884,0.62042093,-0.16083336,17.58463022,78.12035221,451.6893310546875
0.4897043,0.6396117,0.3309126,17.58463022,78.12035221,451.6893310546875
0.008255497,0.45992184,-1.4230695,17.58463022,78.12035221,451.6893310546875
-0.6522751,0.8477683,-0.5237255,17.58463022,78.12035221,451.6893310546875
-0.17402068,0.82730436,-0.43625832,17.58463022,78.12035221,451.6893310546875
-0.4347274,0.5505152,-0.48820686,17.58460891,78.12035418,449.21844482421875
0.13075857,0.7895746,-0.023812294,17.58460891,78.12035418,449.21844482421875
-0.08180189,0.36091185,-1.0483179,17.58460891,78.12035418,449.21844482421875
-1.4815036,0.30762482,0.84308434,17.58460891,78.12035418,449.21844482421875
0.13418476,-0.007595539,-3.1414647,17.58460891,78.12035418,449.21844482421875
-1.8864584,-0.4662609,0.37644386,17.58460891,78.12035418,449.21844482421875
1.4646871,1.0834775,1.1608534,17.58460891,78.12035418,449.21844482421875
0.4220162,0.32823038,-0.666605,17.58460891,78.12035418,449.21844482421875
-0.9497757,0.5161724,0.43848324,17.58460891,78.12035418,449.21844482421875
0.59249926,0.45101023,-0.90780735,17.58460891,78.12035418,449.21844482421875
0.018674195,0.7340317,0.02054882,17.58460891,78.12035418,449.21844482421875
-0.5588723,0.43912697,-0.60394764,17.58460891,78.12035418,449.21844482421875
0.3070412,0.7361541,0.21555233,17.58460891,78.12035418,449.21844482421875
-0.27015847,0.44762993,-0.33053112,17.58460891,78.12035418,449.21844482421875
0.17234832,0.50367594,-0.28365326,17.58460891,78.12035418,449.21844482421875
0.08010924,0.19564009,-0.3999052,17.58460891,78.12035418,449.21844482421875
0.25745204,0.30517292,-0.37068176,17.58460891,78.12035418,449.21844482421875
-0.16122359,0.048423767,0.050297737,17.58460891,78.12035418,449.21844482421875
0.08957085,-0.2163415,0.25422764,17.58460891,78.12035418,449.21844482421875
0.3259057,0.05713892,0.33941078,17.58461532,78.12034479,449.702392578125
0.5198395,-0.04353571,-0.16649532,17.58461532,78.12034479,449.702392578125
-0.41062108,-0.07978058,-0.35222626,17.58461532,78.12034479,449.702392578125
0.23034798,0.05466795,0.13308716,17.58461532,78.12034479,449.702392578125
0.0823932,-0.089291096,-0.47813034,17.58461532,78.12034479,449.702392578125
-0.26383108,-0.044032574,0.19967556,17.58461532,78.12034479,449.702392578125
0.020246685,-0.006670952,-0.013268471,17.58461532,78.12034479,449.702392578125
0.053115726,-0.038136005,-0.15793514,17.58461532,78.12034479,449.702392578125
-0.5590043,-0.39486694,0.1501522,17.58461532,78.12034479,449.702392578125
1.4662466,-0.08898449,2.5670967,17.58461532,78.12034479,449.702392578125
1.236707,-1.1955416,-1.6676784,17.58463259,78.12034703,449.5450439453125
0.35597068,-0.7738862,-0.70269394,17.58463259,78.12034703,449.5450439453125
-0.5038331,0.9303589,0.39950657,17.58463259,78.12034703,449.5450439453125
-0.08733857,1.1669612,-1.471642,17.58463259,78.12034703,449.5450439453125
0.97822255,1.746306,1.9973755,17.58463259,78.12034703,449.5450439453125
1.225577,-0.41523743,-2.0342922,17.58463259,78.12034703,449.5450439453125
-1.4365803,-0.74915934,-0.9433632,17.58463259,78.12034703,449.5450439453125
1.4288138,0.48635244,2.9094286,17.58463259,78.12034703,449.5450439453125
1.6941181,-1.0926774,-3.6894646,17.58463259,78.12034703,449.5450439453125
0.047189564,0.3095088,1.1522331,17.58463259,78.12034703,449.5450439453125
-0.4771081,1.6907125,0.44426537,17.58463259,78.12034703,449.5450439453125
-1.3239412,1.1632185,-0.18999004,17.58463259,78.12034703,449.5450439453125
-0.75002474,0.84767437,-0.734107,17.58463259,78.12034703,449.5450439453125
-2.4226708,-0.05458355,-1.9671578,17.58463259,78.12034703,449.5450439453125
1.7973417,0.5735884,1.4293051,17.58463259,78.12034703,449.5450439453125
1.1874317,0.36778498,-0.5134859,17.58463259,78.12034703,449.5450439453125
0.10855052,0.66619635,0.11101818,17.58463259,78.12034703,449.5450439453125
-0.7331558,0.32956934,-0.97065926,17.58463259,78.12034703,449.5450439453125
0.33792263,0.15735292,-0.40836334,17.58463259,78.12034703,449.5450439453125
0.111995205,0.24398041,-0.35340786,17.58464911,78.12034768,450.46600341796875
0.21072182,0.4934883,0.45570755,17.58464911,78.12034768,450.46600341796875
0.1838693,0.48905563,0.18563557,17.58464911,78.12034768,450.46600341796875
-0.30307797,0.07218838,-0.6587343,17.58464911,78.12034768,450.46600341796875
-0.14152944,0.22953415,-0.5433645,17.58464911,78.12034768,450.46600341796875
0.10588372,0.4853387,-0.13123226,17.58464911,78.12034768,450.46600341796875
-0.052011758,0.47575378,-0.27442455,17.58464911,78.12034768,450.46600341796875
-0.29320216,0.323493,-0.11630821,17.58464911,78.12034768,450.46600341796875
-0.2331422,0.36230612,0.011366844,17.58464911,78.12034768,450.46600341796875
0.081971675,0.19532204,0.019777298,17.58464911,78.12034768,450.46600341796875
0.03593999,0.011181831,0.031621933,17.58466835,78.12034617,451.041748046875
-0.13682663,0.16816425,0.16100788,17.58466835,78.12034617,451.041748046875
-0.095026195,-0.06478071,0.422184,17.58466835,78.12034617,451.041748046875
0.003950238,-0.4913435,-0.0078029633,17.58466835,78.12034617,451.041748046875
-0.20425755,-0.68592167,0.3551283,17.58466835,78.12034617,451.041748046875
0.48334226,-0.5696063,0.38382435,17.58466835,78.12034617,451.041748046875
-0.20619038,-0.6123471,0.0070581436,17.58466835,78.12034617,451.041748046875
-0.07273817,0.08079147,0.13891506,17.58466835,78.12034617,451.041748046875
-0.051716685,-0.25953674,-0.22038841,17.58466835,78.12034617,451.041748046875
0.37665147,-0.15964127,-0.35345745,17.58466835,78.12034617,451.041748046875
-0.25816035,-0.12092447,0.38630295,17.58469272,78.12034385,450.0947265625
0.0058634877,-0.20996332,-0.68072605,17.58469272,78.12034385,450.0947265625
0.09555495,0.07503462,0.43565083,17.58469272,78.12034385,450.0947265625
-0.07412696,-0.07992935,-0.21382523,17.58469272,78.12034385,450.0947265625
0.13239574,8.559227E-4,0.3432455,17.58469272,78.12034385,450.0947265625
0.11167604,-0.16994667,-0.12902927,17.58469272,78.12034385,450.0947265625
-0.046432614,-0.17102051,0.3269949,17.58469272,78.12034385,450.0947265625
-0.17891389,-0.69265556,0.039050102,17.58469272,78.12034385,450.0947265625
0.1517564,-0.5798545,0.5926676,17.58469272,78.12034385,450.0947265625
0.08758587,-0.37700796,0.4018097,17.58472164,78.12034163,448.75115966796875
-0.22592998,-0.32733393,0.5625982,17.58472164,78.12034163,448.75115966796875
0.2612065,-0.59777856,0.09455395,17.58472164,78.12034163,448.75115966796875
-0.30409533,-0.5092933,0.46470833,17.58472164,78.12034163,448.75115966796875
0.13343853,-0.42950177,0.44173527,17.58472164,78.12034163,448.75115966796875
0.1286338,-0.50235295,0.045433044,17.58472164,78.12034163,448.75115966796875
-0.2590708,-0.41139078,0.13403416,17.58472164,78.12034163,448.75115966796875
0.20779815,-0.28732228,-0.07089138,17.58472164,78.12034163,448.75115966796875
-0.034674227,-0.22970772,0.35258675,17.58472164,78.12034163,448.75115966796875
-0.036699533,-0.16847205,0.38339806,17.58472164,78.12034163,448.75115966796875
-0.15232736,-0.26850224,-0.33436298,17.58474378,78.12033933,448.42022705078125
-0.2018143,-0.010170698,0.3432312,17.58474378,78.12033933,448.42022705078125
0.23159456,0.0042004585,-0.08367252,17.58474378,78.12033933,448.42022705078125
0.06576151,-0.052968502,0.017997742,17.58474378,78.12033933,448.42022705078125
-0.26849395,-0.025935411,-0.1333971,17.58474378,78.12033933,448.42022705078125
0.46759045,0.14587355,0.044923782,17.58474378,78.12033933,448.42022705078125
0.2419542,0.0939827,-0.27990627,17.58474378,78.12033933,448.42022705078125
-0.0023024678,0.5049484,-0.11170769,17.58474378,78.12033933,448.42022705078125
-0.13519526,0.53216434,-0.28625774,17.58474378,78.12033933,448.42022705078125
0.05007392,0.45134592,-0.18746948,17.58476159,78.12033831,448.28125
0.093319476,0.55795217,-0.34825706,17.58476159,78.12033831,448.28125
-0.03139049,0.6054807,-0.14838982,17.58476159,78.12033831,448.28125
-0.09707737,0.40176392,-0.7194643,17.58476159,78.12033831,448.28125
-0.08036727,0.30183125,-0.061573982,17.58476159,78.12033831,448.28125
-0.101852655,0.3052411,0.07609844,17.58476159,78.12033831,448.28125
0.27802292,0.19159508,-0.87097454,17.58476159,78.12033831,448.28125
0.017795146,0.298666,-0.6220217,17.58476159,78.12033831,448.28125
0.09084646,0.4758463,-0.36972332,17.58476159,78.12033831,448.28125
0.013277531,0.27647495,1.3826122,17.58476159,78.12033831,448.28125
-0.39567497,0.29186535,-1.3503876,17.58476159,78.12033831,448.28125
0.37922382,0.4642384,0.09974575,17.58476159,78.12033831,448.28125
-0.7593812,0.42928386,-0.2141447,17.58476159,78.12033831,448.28125
-0.06733829,0.61272717,-0.16856861,17.58476159,78.12033831,448.28125
-0.49298853,1.1334434,-0.22497559,17.58476159,78.12033831,448.28125
-0.3442256,0.6826968,-0.16703892,17.58476159,78.12033831,448.28125
-0.029896587,0.45819092,-0.6201258,17.58476159,78.12033831,448.28125
-0.016070843,0.6462102,0.04019642,17.58476159,78.12033831,448.28125
-0.7082869,0.48597574,-0.2411251,17.58476159,78.12033831,448.28125
0.6144965,0.8309102,-0.10244846,17.58476159,78.12033831,448.28125
-0.26949,-0.134099,0.33030128,17.58475133,78.12033578,448.162109375
0.029734194,0.54862595,0.22696686,17.58475133,78.12033578,448.162109375
-0.41174835,0.21450233,-0.22687626,17.58475133,78.12033578,448.162109375
0.31198546,-0.18390751,-0.6867094,17.58475133,78.12033578,448.162109375
-0.019192845,-0.49496078,-0.54922295,17.58475133,78.12033578,448.162109375
0.15292606,0.39391613,0.27824783,17.58475133,78.12033578,448.162109375
-0.7172148,-0.04191208,-0.64029217,17.58475133,78.12033578,448.162109375
0.22633326,0.25712729,0.40791607,17.58475133,78.12033578,448.162109375
0.49784955,-0.078418255,0.4968338,17.58475133,78.12033578,448.162109375
0.12991083,-0.32450914,-0.32181835,17.58475133,78.12033578,448.162109375
0.025137633,0.040599346,0.11102867,17.58475133,78.12033578,448.162109375
-0.23665969,-0.111579895,0.22819424,17.58475133,78.12033578,448.162109375
-0.17739278,-0.021988392,-0.14098835,17.58475133,78.12033578,448.162109375
-0.3141509,0.23992777,0.18057919,17.58475133,78.12033578,448.162109375
-0.07711455,0.17396688,-1.1442852,17.58475133,78.12033578,448.162109375
0.3711193,0.3034048,0.710762,17.58475133,78.12033578,448.162109375
-0.30910778,0.033765793,0.10694027,17.58475133,78.12033578,448.162109375
-0.6520246,0.22365046,-1.1306124,17.58475133,78.12033578,448.162109375
0.48541632,0.18217802,0.3328638,17.58475133,78.12033578,448.162109375
-0.2030765,-0.21725655,-0.06953335,17.58477147,78.1203363,448.49853515625
-0.17921841,0.33484554,-0.42814636,17.58477147,78.1203363,448.49853515625
0.11398736,0.11998987,-0.60676575,17.58477147,78.1203363,448.49853515625
0.030156583,-0.08300495,-0.19184399,17.58477147,78.1203363,448.49853515625
0.31553254,-0.025589943,0.0747776,17.58477147,78.1203363,448.49853515625
0.1418041,-0.5268345,0.603919,17.58477147,78.1203363,448.49853515625
0.028844744,-0.8353226,0.70771503,17.58477147,78.1203363,448.49853515625
0.32844588,-1.0099297,-0.20464134,17.58477147,78.1203363,448.49853515625
0.75825316,-0.54840565,1.1859388,17.58477147,78.1203363,448.49853515625
-0.002060473,-0.5327656,0.09486103,17.58479418,78.12033597,448.790283203125
0.26352745,-0.27224922,-0.09020901,17.58479418,78.12033597,448.790283203125
0.51158744,-0.24237108,0.22452354,17.58479418,78.12033597,448.790283203125
-0.58834934,-0.08166695,0.23997974,17.58479418,78.12033597,448.790283203125
-0.07537359,-0.26442528,0.26065063,17.58479418,78.12033597,448.790283203125
-0.3072359,-0.36058807,0.23998833,17.58479418,78.12033597,448.790283203125
-0.44500443,-0.5561509,-0.006960869,17.58479418,78.12033597,448.790283203125
-0.6172634,0.071047306,-0.1681633,17.58479418,78.12033597,448.790283203125
-0.065907985,-0.3303647,0.084085464,17.58479418,78.12033597,448.790283203125
0.23419073,-0.06527281,-0.1703968,17.58479418,78.12033597,448.790283203125
0.09257739,-0.070090294,-0.42095566,17.58482006,78.12033394,448.8719482421875
0.41127026,-0.19568872,0.77944183,17.58482006,78.12033394,448.8719482421875
0.08618593,-0.23824024,0.5712328,17.58482006,78.12033394,448.8719482421875
0.44327894,-0.47215176,1.5790653,17.58482006,78.12033394,448.8719482421875
0.27779096,-0.6449714,0.55452824,17.58482006,78.12033394,448.8719482421875
0.17884092,-0.41355228,-0.1037035,17.58482006,78.12033394,448.8719482421875
-0.89078426,0.71084976,-0.877203,17.58482006,78.12033394,448.8719482421875
0.40183586,0.9493017,-0.45737457,17.58482006,78.12033394,448.8719482421875
-0.32097274,-0.84108305,-0.9035883,17.58482006,78.12033394,448.8719482421875
0.04969378,-0.25147963,-0.9528065,17.58482006,78.12033394,448.8719482421875
0.45721194,0.21246529,0.6904001,17.58484521,78.12033441,448.84417724609375
0.7279469,0.520453,-0.2270441,17.58484521,78.12033441,448.84417724609375
-0.4949753,0.6924052,-1.5212741,17.58484521,78.12033441,448.84417724609375
-1.1734196,-0.15963078,-0.6854582,17.58484521,78.12033441,448.84417724609375
-0.09295662,0.62143517,1.2338133,17.58484521,78.12033441,448.84417724609375
-0.3332386,0.67323494,0.39009953,17.58484521,78.12033441,448.84417724609375
0.6152939,0.7929354,-0.46250916,17.58484521,78.12033441,448.84417724609375
-0.029845148,0.34738255,0.22829723,17.58484521,78.12033441,448.84417724609375
-0.11411746,0.6864128,-0.9910097,17.58484521,78.12033441,448.84417724609375
0.545807,0.5046668,-0.5439596,17.58487078,78.12033698,448.57415771484375
-0.2848448,1.0300193,0.32892704,17.58487078,78.12033698,448.57415771484375
-0.62576383,0.57181406,-0.23210526,17.58487078,78.12033698,448.57415771484375
0.04854367,0.2649927,-0.37207603,17.58487078,78.12033698,448.57415771484375
0.25367355,0.24651384,-0.11270332,17.58487078,78.12033698,448.57415771484375
0.19253102,0.37684536,-0.5377407,17.58487078,78.12033698,448.57415771484375
-0.6252685,0.36595917,-0.028315544,17.58487078,78.12033698,448.57415771484375
0.09571516,-0.06292868,-0.25477695,17.58487078,78.12033698,448.57415771484375
0.6474279,0.6467309,0.08004761,17.58487078,78.12033698,448.57415771484375
-0.42559436,0.26163244,-0.48468208,17.58487078,78.12033698,448.57415771484375
-0.5312606,0.46315575,0.15899467,17.5849043,78.12033659,448.88226318359375
-0.49313107,-0.07574129,-0.5822525,17.5849043,78.12033659,448.88226318359375
-0.04201427,0.3073535,-0.23680687,17.5849043,78.12033659,448.88226318359375
0.026135325,0.21544743,0.20997047,17.5849043,78.12033659,448.88226318359375
0.025282204,-0.14404249,-0.67723274,17.5849043,78.12033659,448.88226318359375
0.45678705,-0.12217617,0.13611794,17.5849043,78.12033659,448.88226318359375
-0.43854764,0.6437621,0.5639057,17.5849043,78.12033659,448.88226318359375
-0.030095458,-0.056824684,-0.10448837,17.5849043,78.12033659,448.88226318359375
-0.067780614,0.055722237,-0.22846794,17.5849043,78.12033659,448.88226318359375
-0.30422992,0.17081928,-0.06651211,17.58494,78.12033883,448.97528076171875
-0.11438596,-0.11870098,-0.22614384,17.58494,78.12033883,448.97528076171875
0.17951357,0.18123102,-0.20260811,17.58494,78.12033883,448.97528076171875
0.2857989,0.39065456,0.5389433,17.58494,78.12033883,448.97528076171875
-0.019533396,-0.6862805,0.0018520355,17.58494,78.12033883,448.97528076171875
-0.29958296,0.0870986,2.2784815,17.58494,78.12033883,448.97528076171875
0.46626425,0.22815657,-0.7912245,17.58494,78.12033883,448.97528076171875
0.5496608,-0.4079399,-0.724453,17.58494,78.12033883,448.97528076171875
-0.32587326,-0.56391,0.08588886,17.58494,78.12033883,448.97528076171875
0.007994175,-0.20193529,-0.18288898,17.58494,78.12033883,448.97528076171875
0.34644818,-0.53646183,0.09219742,17.58499443,78.12034827,449.12603759765625
0.24817991,-0.2915573,0.15759945,17.58499443,78.12034827,449.12603759765625
-0.5271666,-0.27709198,0.29873466,17.58499443,78.12034827,449.12603759765625
-0.37260306,-0.4983542,-0.12631416,17.58499443,78.12034827,449.12603759765625
0.19551373,0.18409777,0.015241623,17.58499443,78.12034827,449.12603759765625
-0.09348607,-1.0334823,0.07382393,17.58499443,78.12034827,449.12603759765625
0.50512016,-0.14174128,0.45684338,17.58499443,78.12034827,449.12603759765625
0.3552065,-0.0849309,-0.17074871,17.58499443,78.12034827,449.12603759765625
-0.342178,-0.5122113,-0.20242786,17.58499443,78.12034827,449.12603759765625
0.13365555,-0.084798574,0.12512112,17.585049,78.12034317,449.3995361328125
-0.5033909,-0.18884492,-0.28173065,17.585049,78.12034317,449.3995361328125
0.17149103,0.20065951,0.46637726,17.585049,78.12034317,449.3995361328125
0.038113117,-0.44411707,0.33984375,17.585049,78.12034317,449.3995361328125
-0.5914792,-1.4893689,-0.336771,17.585049,78.12034317,449.3995361328125
0.4652325,0.7012272,-0.03135395,17.585049,78.12034317,449.3995361328125
0.027332425,0.60057116,0.26594257,17.585049,78.12034317,449.3995361328125
-0.0010906458,0.291461,-0.0138196945,17.585049,78.12034317,449.3995361328125
0.05646622,0.11175847,0.25370216,17.585049,78.12034317,449.3995361328125
-0.7118984,-0.92693424,0.20798874,17.585049,78.12034317,449.3995361328125
0.84284186,0.03127885,-0.3440714,17.5851186,78.12034599,451.477294921875
0.22074473,-0.18824172,0.28023434,17.5851186,78.12034599,451.477294921875
0.41194153,0.90394163,0.5443897,17.5851186,78.12034599,451.477294921875
-1.5688672,-1.356926,-1.1443491,17.5851186,78.12034599,451.477294921875
0.6741487,-0.10390735,-0.63533306,17.5851186,78.12034599,451.477294921875
0.4424361,0.43176794,0.48329353,17.5851186,78.12034599,451.477294921875
-0.37942407,1.1427197,0.5151777,17.5851186,78.12034599,451.477294921875
-0.26455444,0.367455,-0.4054165,17.5851186,78.12034599,451.477294921875
-0.59804404,-0.7916844,-0.41772175,17.5851186,78.12034599,451.477294921875
-0.06808156,0.039033175,-0.620368,17.5851186,78.12034599,451.477294921875
-0.050870717,-0.1276958,-0.5201969,17.58517906,78.12035013,450.813720703125
1.2255774,1.338249,0.27393818,17.58517906,78.12035013,450.813720703125
-1.4111779,-1.8665209,-0.35600662,17.58517906,78.12035013,450.813720703125
0.21866816,-0.17923403,0.9055443,17.58517906,78.12035013,450.813720703125
0.5740495,1.411053,-0.30267334,17.58517906,78.12035013,450.813720703125
-0.99799085,0.6985452,0.1712017,17.58517906,78.12035013,450.813720703125
-0.18659455,-0.4814613,-1.5512176,17.58517906,78.12035013,450.813720703125
0.6018352,0.37959528,0.13701916,17.58517906,78.12035013,450.813720703125
-0.4394138,-0.18462253,-0.0023202896,17.58517906,78.12035013,450.813720703125
0.43368685,0.6521852,-0.29879093,17.58523425,78.12035888,451.59716796875
0.29200006,0.54664826,-0.13358307,17.58523425,78.12035888,451.59716796875
-0.56078136,0.30803347,0.012889862,17.58523425,78.12035888,451.59716796875
0.18796337,0.16334772,-0.023162842,17.58523425,78.12035888,451.59716796875
-0.5649953,-0.5654862,-1.0221758,17.58523425,78.12035888,451.59716796875
-0.15207738,-0.09348822,0.11216164,17.58523425,78.12035888,451.59716796875
0.015945911,0.5521693,0.52604675,17.58523425,78.12035888,451.59716796875
-0.2707155,0.67467403,0.50994873,17.58523425,78.12035888,451.59716796875
-0.12631172,-0.45188475,-0.27834988,17.58523425,78.12035888,451.59716796875
-0.15259534,-0.7568686,0.076348305,17.58523425,78.12035888,451.59716796875
-0.43139797,0.5409994,0.040952682,17.585282,78.12036109,452.0093994140625
-0.3128584,0.9590285,0.34362125,17.585282,78.12036109,452.0093994140625
-0.106228426,0.103235245,-0.6788626,17.585282,78.12036109,452.0093994140625
-0.3395626,0.20524955,0.77411747,17.585282,78.12036109,452.0093994140625
0.068370506,0.032029152,0.031209946,17.585282,78.12036109,452.0093994140625
0.22516452,0.26628184,0.6122494,17.585282,78.12036109,452.0093994140625
-0.5129428,0.6533537,-0.20863914,17.585282,78.12036109,452.0093994140625
-0.63904274,0.9681895,-0.3457842,17.585282,78.12036109,452.0093994140625
-0.45835942,-0.92677355,-0.23891544,17.585282,78.12036109,452.0093994140625
-0.18926036,0.35795355,0.036746025,17.58533332,78.12035427,452.1802978515625
-0.22150534,-0.95073247,0.9469099,17.58533332,78.12035427,452.1802978515625
0.4119228,-0.7961159,0.09472847,17.58533332,78.12035427,452.1802978515625
-0.99675804,-0.97377205,-0.3582964,17.58533332,78.12035427,452.1802978515625
-0.21165453,-0.004807234,-0.9240589,17.58533332,78.12035427,452.1802978515625
0.81437474,1.1511993,-0.8808384,17.58533332,78.12035427,452.1802978515625
0.20154306,-0.14448595,0.45697498,17.58533332,78.12035427,452.1802978515625
0.102407515,0.1400795,1.1907663,17.58533332,78.12035427,452.1802978515625
-0.4790513,0.10064292,1.0193853,17.58533332,78.12035427,452.1802978515625
-0.005247608,0.6463947,-0.7824402,17.58533332,78.12035427,452.1802978515625
0.05358532,-0.8783505,-0.030341148,17.58540829,78.12034335,452.8812255859375
-0.3273899,-1.0801675,-1.6061215,17.58540829,78.12034335,452.8812255859375
0.5729533,0.040245056,0.72717285,17.58540829,78.12034335,452.8812255859375
1.1975818,2.1094782,1.5284395,17.58540829,78.12034335,452.8812255859375
-0.6997213,-0.8905268,0.9485569,17.58540829,78.12034335,452.8812255859375
0.0260446,-0.7462485,-1.0194502,17.58540829,78.12034335,452.8812255859375
0.99623835,1.0115933,0.21930695,17.58540829,78.12034335,452.8812255859375
-0.4267522,-1.1769338,-0.1496954,17.58540829,78.12034335,452.8812255859375
-0.22922969,-0.40361118,-0.3868971,17.58540829,78.12034335,452.8812255859375
0.5334492,0.14448476,0.6900091,17.58540829,78.12034335,452.8812255859375
0.28552026,-0.11027765,0.74574757,17.58547195,78.12033148,453.3594970703125
0.8472607,1.655976,0.16157341,17.58547195,78.12033148,453.3594970703125
-0.22848311,-1.171159,-1.1599054,17.58547195,78.12033148,453.3594970703125
0.5898862,-0.85671353,-1.7765317,17.58547195,78.12033148,453.3594970703125
0.88570297,0.16393137,0.46193504,17.58547195,78.12033148,453.3594970703125
0.1564424,-0.30738664,0.4752283,17.58547195,78.12033148,453.3594970703125
0.21634567,0.52679634,0.51639175,17.58547195,78.12033148,453.3594970703125
0.24120733,0.54017687,0.5708208,17.58547195,78.12033148,453.3594970703125
-0.32350022,-0.82699347,0.9606838,17.58547195,78.12033148,453.3594970703125
0.20668766,-1.786355,-2.2297277,17.5855206,78.12030945,451.287353515625
1.3850242,1.7312407,-0.78227806,17.5855206,78.12030945,451.287353515625
-0.082376,-1.5920825,1.9601183,17.5855206,78.12030945,451.287353515625
0.67563504,0.81382537,0.53119564,17.5855206,78.12030945,451.287353515625
-0.08458519,-0.23135066,-0.58656025,17.5855206,78.12030945,451.287353515625
0.923334,-0.7654345,-0.5685978,17.5855206,78.12030945,451.287353515625
-0.04831794,-0.4705932,0.5943241,17.5855206,78.12030945,451.287353515625
-0.34080225,-0.83059096,-0.09244537,17.5855206,78.12030945,451.287353515625
0.6269123,0.15897489,0.3338232,17.5855206,78.12030945,451.287353515625
0.43619406,-0.644115,1.0216618,17.5855206,78.12030945,451.287353515625
0.3833422,-0.6900141,-0.50072956,17.5855932,78.12029776,452.48284912109375
0.7477363,-0.8193047,0.38992405,17.5855932,78.12029776,452.48284912109375
0.8916793,0.46045113,-0.74991703,17.5855932,78.12029776,452.48284912109375
0.1379472,-0.49473214,0.46288872,17.5855932,78.12029776,452.48284912109375
-0.2609674,0.59870005,0.6474304,17.5855932,78.12029776,452.48284912109375
-0.5216895,-0.49224567,0.649992,17.5855932,78.12029776,452.48284912109375
1.8571337,1.4870391,-0.60774994,17.5855932,78.12029776,452.48284912109375
0.25976545,-0.13587785,-0.8315401,17.5855932,78.12029776,452.48284912109375
0.8422967,0.34961033,0.46253014,17.5855932,78.12029776,452.48284912109375
-0.50339454,-1.4117572,-1.4375076,17.58566113,78.1202859,453.2763671875
0.106134236,-0.751899,2.2621574,17.58566113,78.1202859,453.2763671875
0.051602483,0.64737535,-0.36550617,17.58566113,78.1202859,453.2763671875
-0.17637804,1.054784,-0.45995045,17.58566113,78.1202859,453.2763671875
-1.3622794,-2.1609943,-1.273633,17.58566113,78.1202859,453.2763671875
0.84393114,-0.44387722,0.92178535,17.58566113,78.1202859,453.2763671875
0.6030091,-0.4656415,0.085886,17.58566113,78.1202859,453.2763671875
0.6723019,2.2158754,-0.110669136,17.58566113,78.1202859,453.2763671875
-1.3483243,-0.33556747,-0.4597664,17.58566113,78.1202859,453.2763671875
-0.71418554,-2.21539,-0.85916424,17.58566113,78.1202859,453.2763671875
0.9141912,0.770674,1.472743,17.5857204,78.12027991,452.6295166015625
-0.9135003,-1.1271613,-0.44012356,17.5857204,78.12027991,452.6295166015625
0.30460066,0.5574446,-0.40322495,17.5857204,78.12027991,452.6295166015625
-0.4274091,-0.090321064,-0.40226746,17.5857204,78.12027991,452.6295166015625
0.31943107,-0.528378,-0.048189163,17.5857204,78.12027991,452.6295166015625
0.19086689,-0.06104088,0.7031431,17.5857204,78.12027991,452.6295166015625
0.17071182,0.49455786,-0.054593086,17.5857204,78.12027991,452.6295166015625
-0.069495976,-0.23839116,0.21201515,17.5857204,78.12027991,452.6295166015625
0.7402922,0.29740596,-0.10350895,17.5857204,78.12027991,452.6295166015625
0.36153466,0.84629655,-0.17967606,17.5857204,78.12027991,452.6295166015625
-0.61656195,0.1749258,-0.22845554,17.58577734,78.1202797,452.1845703125
-0.47912282,-0.13811874,-0.10708046,17.58577734,78.1202797,452.1845703125
0.007558346,0.2020595,0.4049673,17.58577734,78.1202797,452.1845703125
-0.8291312,-0.73960924,-0.36240864,17.58577734,78.1202797,452.1845703125
-0.20252031,-0.50245905,-0.38909245,17.58577734,78.1202797,452.1845703125
-0.5521943,-0.114997864,0.525033,17.58577734,78.1202797,452.1845703125
0.21462256,0.4048879,0.25248432,17.58577734,78.1202797,452.1845703125
-0.15659626,-0.060335875,-0.25493336,17.58577734,78.1202797,452.1845703125
-0.39027572,-0.20677996,-0.18716335,17.58577734,78.1202797,452.1845703125
-0.05371183,-0.3253591,0.038072586,17.58584702,78.12028343,452.7906494140625
0.15137914,-0.6837623,-0.6536989,17.58584702,78.12028343,452.7906494140625
-0.50955844,-0.2698996,0.11733246,17.58584702,78.12028343,452.7906494140625
0.32761627,-0.015230417,0.35748386,17.58584702,78.12028343,452.7906494140625
-0.240278,0.038743496,-0.80163765,17.58584702,78.12028343,452.7906494140625
0.34436715,0.23092484,5.893707E-4,17.58584702,78.12028343,452.7906494140625
-0.62874806,-0.40433097,-0.2582264,17.58584702,78.12028343,452.7906494140625
0.2568637,0.75117207,0.107834816,17.58584702,78.12028343,452.7906494140625
-0.17775103,0.10746002,0.033047676,17.58584702,78.12028343,452.7906494140625
0.063155934,0.16961288,0.5503664,17.58584702,78.12028343,452.7906494140625
-0.00489486,-0.44720268,-0.29000664,17.58591467,78.12028356,453.4034423828125
-0.34267616,-0.34232235,-0.21683025,17.58591467,78.12028356,453.4034423828125
0.54802203,0.7328541,-0.16136932,17.58591467,78.12028356,453.4034423828125
-0.31457868,-0.20530748,0.19005966,17.58591467,78.12028356,453.4034423828125
0.24016243,0.3461728,0.13803959,17.58591467,78.12028356,453.4034423828125
0.12952717,-0.03935218,0.16312313,17.58591467,78.12028356,453.4034423828125
0.40216103,0.26399255,0.11218643,17.58591467,78.12028356,453.4034423828125
-0.16722046,-0.500504,-0.25478268,17.58591467,78.12028356,453.4034423828125
0.038531885,0.57172155,0.44635296,17.58591467,78.12028356,453.4034423828125
-0.2673836,-1.0084071,-0.93700314,17.58599769,78.12028782,453.4300537109375
0.049214654,0.32467222,0.5832672,17.58599769,78.12028782,453.4300537109375
0.19069012,-0.1454997,-0.006825447,17.58599769,78.12028782,453.4300537109375
-0.4516878,-0.47992802,-0.25093174,17.58599769,78.12028782,453.4300537109375
0.3632975,0.61039233,0.0153923035,17.58599769,78.12028782,453.4300537109375
-0.116188936,-0.57134604,-0.09459305,17.58599769,78.12028782,453.4300537109375
0.12957409,0.2337904,0.33997154,17.58599769,78.12028782,453.4300537109375
0.17850891,0.39027596,-0.7164793,17.58599769,78.12028782,453.4300537109375
-0.22080204,-0.13190985,0.023557663,17.58599769,78.12028782,453.4300537109375
0.66143304,0.20808816,0.44800472,17.58599769,78.12028782,453.4300537109375
-0.16293672,-0.4612193,0.68568516,17.58606973,78.12028919,453.59600830078125
0.44851303,0.6821518,-0.10850334,17.58606973,78.12028919,453.59600830078125
0.12879834,0.5687332,-0.36418152,17.58606973,78.12028919,453.59600830078125
-0.26398626,-0.37401962,-0.27745438,17.58606973,78.12028919,453.59600830078125
0.60326993,0.12805104,0.16280842,17.58606973,78.12028919,453.59600830078125
-0.45701396,0.16872668,0.48340225,17.58606973,78.12028919,453.59600830078125
-0.5261055,0.53703976,-0.10747528,17.58606973,78.12028919,453.59600830078125
0.41832256,-0.1068697,-1.1178408,17.58606973,78.12028919,453.59600830078125
-0.21958563,-0.5479448,0.47677898,17.58606973,78.12028919,453.59600830078125
0.8127606,0.88602614,0.4565115,17.58606973,78.12028919,453.59600830078125
0.72032595,0.77185273,0.56431484,17.5861426,78.12028675,452.89892578125
-0.537632,0.65821767,-0.7508316,17.5861426,78.12028675,452.89892578125
0.20790204,-0.21643806,-0.234972,17.5861426,78.12028675,452.89892578125
1.7447681,2.015047,0.15964985,17.5861426,78.12028675,452.89892578125
-0.5105477,-1.6008141,-0.21375465,17.5861426,78.12028675,452.89892578125
-0.032552212,0.3007381,0.05913639,17.5861426,78.12028675,452.89892578125
-0.34976423,-0.2796073,-0.95590496,17.5861426,78.12028675,452.89892578125
-0.5107218,-0.28123975,-0.1544981,17.5861426,78.12028675,452.89892578125
0.013788074,0.27143097,2.2739534,17.5861426,78.12028675,452.89892578125
0.6661508,-0.48347783,1.0307674,17.58622551,78.12028683,452.9010009765625
-0.5458534,-0.9865005,-0.839056,17.58622551,78.12028683,452.9010009765625
-0.3422445,-1.1143284,-0.34631634,17.58622551,78.12028683,452.9010009765625
-0.25866267,-0.48312163,-0.2810278,17.58622551,78.12028683,452.9010009765625
0.22693753,0.15192795,1.2948561,17.58622551,78.12028683,452.9010009765625
-0.67377245,-0.85668325,0.2564535,17.58622551,78.12028683,452.9010009765625
-0.5809388,-1.8091193,-0.23136425,17.58622551,78.12028683,452.9010009765625
1.1422287,1.150027,0.2867489,17.58622551,78.12028683,452.9010009765625
-0.28801763,-1.6291089,0.16404343,17.58622551,78.12028683,452.9010009765625
-0.2847253,-1.1105585,-0.026241302,17.58622551,78.12028683,452.9010009765625
0.084468246,-0.3474288,-0.32037544,17.5863021,78.12028407,453.26959228515625
-0.4977188,-0.82394576,-0.064715385,17.5863021,78.12028407,453.26959228515625
0.28128105,0.012451649,0.06613445,17.5863021,78.12028407,453.26959228515625
0.089595675,-0.23108482,-0.29550362,17.5863021,78.12028407,453.26959228515625
0.25723988,-0.15046763,0.26592445,17.5863021,78.12028407,453.26959228515625
-0.23332432,-0.98460174,0.13099861,17.5863021,78.12028407,453.26959228515625
0.6987844,1.0116174,-0.55072784,17.5863021,78.12028407,453.26959228515625
-0.696026,-0.9572582,-0.18193817,17.5863021,78.12028407,453.26959228515625
0.9035121,0.12926245,0.12630081,17.5863021,78.12028407,453.26959228515625
0.4216433,0.6021297,0.19933319,17.58638685,78.12027921,452.9368896484375
0.385901,0.03084898,0.2478447,17.58638685,78.12027921,452.9368896484375
0.42798284,-0.28588963,-0.5387287,17.58638685,78.12027921,452.9368896484375
1.0439928,0.31861806,-0.24674606,17.58638685,78.12027921,452.9368896484375
-0.21493748,-0.7238467,-0.14570332,17.58638685,78.12027921,452.9368896484375
-0.48866624,-1.0639458,-0.035126686,17.58638685,78.12027921,452.9368896484375
0.5183933,-0.13510275,0.019657135,17.58638685,78.12027921,452.9368896484375
-0.6764926,-0.63623357,-0.16344452,17.58638685,78.12027921,452.9368896484375
0.079627454,0.28042388,0.6550646,17.58638685,78.12027921,452.9368896484375
-0.24256241,-0.25578308,-0.5091877,17.58638685,78.12027921,452.9368896484375
-0.40173554,-0.41706896,0.41981316,17.58646555,78.12027981,452.9638671875
0.19575673,-0.13234067,-0.23822308,17.58646555,78.12027981,452.9638671875
0.31998694,-0.3599751,0.28014565,17.58646555,78.12027981,452.9638671875
0.05387613,0.23728704,0.051623344,17.58646555,78.12027981,452.9638671875
1.2376158,1.2902551,-0.19918537,17.58646555,78.12027981,452.9638671875
-0.29221448,-0.93294764,-0.7022867,17.58646555,78.12027981,452.9638671875
-0.112590134,-0.5241709,0.118258476,17.58646555,78.12027981,452.9638671875
-0.00500232,0.18406463,0.2499628,17.58646555,78.12027981,452.9638671875
-0.5834612,0.35402346,0.54104996,17.58646555,78.12027981,452.9638671875
0.54429275,0.39428878,-0.6029377,17.58653451,78.12028179,452.42236328125
0.14147529,-1.3356996,-0.6177435,17.58653451,78.12028179,452.42236328125
-0.37038574,-0.1425438,-0.12004089,17.58653451,78.12028179,452.42236328125
0.5171552,0.03520322,-0.014798164,17.58653451,78.12028179,452.42236328125
-0.11499107,-0.66752076,-0.14232635,17.58653451,78.12028179,452.42236328125
-0.5152719,0.09680772,1.5404129,17.58653451,78.12028179,452.42236328125
-0.30772007,-0.2409358,-1.3649187,17.58653451,78.12028179,452.42236328125
-0.26705813,-0.37908506,-0.69928074,17.58653451,78.12028179,452.42236328125
0.9006009,0.8005848,0.089118004,17.58653451,78.12028179,452.42236328125
-0.1274825,0.42565274,-0.099430084,17.58653451,78.12028179,452.42236328125
-0.18071488,0.21015644,0.51353073,17.5866072,78.12029126,452.3126220703125
0.22262776,0.1398294,1.583622,17.5866072,78.12029126,452.3126220703125
-1.4197664,-2.1843288,-2.601986,17.5866072,78.12029126,452.3126220703125
1.7056763,1.7336183,-0.7351694,17.5866072,78.12029126,452.3126220703125
-0.19901435,-0.28834033,1.5388241,17.5866072,78.12029126,452.3126220703125
-0.35233825,-0.3926971,-0.08999157,17.5866072,78.12029126,452.3126220703125
0.45686445,1.633193,1.0855608,17.5866072,78.12029126,452.3126220703125
0.16534695,0.7205725,1.4906893,17.5866072,78.12029126,452.3126220703125
-0.27107757,0.55104566,-0.58100414,17.5866072,78.12029126,452.3126220703125
-0.7278408,-1.5418322,-1.1780443,17.5866072,78.12029126,452.3126220703125
0.016522467,1.3468869,-0.16822815,17.58669466,78.12030026,452.5618896484375
0.3224046,0.53559184,-0.7626562,17.58669466,78.12030026,452.5618896484375
-0.8353336,0.19316053,0.05961609,17.58669466,78.12030026,452.5618896484375
-1.2157266,-0.19347239,0.4213543,17.58669466,78.12030026,452.5618896484375
-0.38767117,0.3626902,-1.2805176,17.58669466,78.12030026,452.5618896484375
-1.0567715,-0.61888075,-0.1523838,17.58669466,78.12030026,452.5618896484375
-0.8521199,-0.20726371,0.64826775,17.58669466,78.12030026,452.5618896484375
-0.0051181503,0.79721403,0.10646343,17.58669466,78.12030026,452.5618896484375
-1.7896978,-0.70632887,-0.84663963,17.58669466,78.12030026,452.5618896484375
0.432713,1.1323555,-0.24376297,17.58678163,78.12031465,452.9951171875
-1.2355161,-0.4146874,-0.65249634,17.58678163,78.12031465,452.9951171875
-1.6825604,-0.4104092,-0.014918327,17.58678163,78.12031465,452.9951171875
-0.837482,0.5359514,1.8834047,17.58678163,78.12031465,452.9951171875
0.5894754,0.87957287,-0.5311651,17.58678163,78.12031465,452.9951171875
-1.4130069,-1.2614431,-1.3826666,17.58678163,78.12031465,452.9951171875
-0.4018315,0.5553701,0.5906029,17.58678163,78.12031465,452.9951171875
-0.4996614,-0.21097207,1.1852827,17.58678163,78.12031465,452.9951171875
0.12681459,0.95776296,-0.30538273,17.58678163,78.12031465,452.9951171875
-2.2174225,-1.7669575,-0.6257324,17.58678163,78.12031465,452.9951171875
-0.2751781,0.16838026,-1.3441267,17.58685624,78.12031366,452.1060791015625
-0.722008,0.53693056,-0.56455994,17.58685624,78.12031366,452.1060791015625
-0.1589122,0.7400205,1.1268721,17.58685624,78.12031366,452.1060791015625
0.5253303,2.386918,0.48361778,17.58685624,78.12031366,452.1060791015625
-0.74713075,-1.9017915,-0.67827606,17.58685624,78.12031366,452.1060791015625
0.4040663,1.4257538,0.3627491,17.58685624,78.12031366,452.1060791015625
-0.1307716,-0.3497889,-1.3144741,17.58685624,78.12031366,452.1060791015625
-0.2074225,-0.038805723,0.66120434,17.58685624,78.12031366,452.1060791015625
1.0761827,1.7855971,1.94312,17.58685624,78.12031366,452.1060791015625
-0.8436646,0.30345845,-1.8882403,17.58693856,78.12031417,452.16815185546875
1.470633,0.60223055,1.108201,17.58693856,78.12031417,452.16815185546875
-0.12375371,-1.0093429,-0.24557018,17.58693856,78.12031417,452.16815185546875
1.8472726,0.43359947,0.23421288,17.58693856,78.12031417,452.16815185546875
-0.02628097,-0.365772,0.6154518,17.58693856,78.12031417,452.16815185546875
0.8413204,0.39601564,-0.39267635,17.58693856,78.12031417,452.16815185546875
-0.5275172,-1.2099972,0.17818928,17.58693856,78.12031417,452.16815185546875
1.5200521,1.2703943,-0.123565674,17.58693856,78.12031417,452.16815185546875
0.96308047,-0.64534855,-0.07656956,17.58693856,78.12031417,452.16815185546875
0.48520368,-0.71374965,-0.38942623,17.58693856,78.12031417,452.16815185546875
0.34036732,0.06693053,0.08062458,17.58701483,78.12031109,453.21826171875
0.5804029,-0.30903888,-0.058317184,17.58701483,78.12031109,453.21826171875
0.6389447,-0.03270507,0.9005852,17.58701483,78.12031109,453.21826171875
0.047349863,-0.056752443,0.018577576,17.58701483,78.12031109,453.21826171875
1.3635955,0.5568836,0.14104462,17.58701483,78.12031109,453.21826171875
1.049279,-0.5806947,-0.13942814,17.58701483,78.12031109,453.21826171875
0.7737796,0.2774055,0.8605728,17.58701483,78.12031109,453.21826171875
-0.31954208,-0.6363621,-0.64941597,17.58701483,78.12031109,453.21826171875
1.0342963,0.47535658,0.20409203,17.58701483,78.12031109,453.21826171875
-0.19101968,-0.7163384,-0.41347218,17.58701483,78.12031109,453.21826171875
0.70229137,-0.24161196,0.25710583,17.58709242,78.12032138,453.334716796875
0.5941894,0.968344,0.15540981,17.58709242,78.12032138,453.334716796875
1.003852,0.57619786,-0.19548225,17.58709242,78.12032138,453.334716796875
0.02508542,-1.5710566,0.15537357,17.58709242,78.12032138,453.334716796875
1.1231402,0.09839845,0.5861702,17.58709242,78.12032138,453.334716796875
0.76798415,1.2393782,-0.6895838,17.58709242,78.12032138,453.334716796875
-0.35656726,0.19908309,0.9748001,17.58709242,78.12032138,453.334716796875
-0.20545301,0.17856932,-0.80409336,17.58709242,78.12032138,453.334716796875
1.5946645,0.7528305,0.46431446,17.58709242,78.12032138,453.334716796875
1.2090946,0.6991267,-0.1766262,17.5871518,78.12034151,452.86346435546875
0.83203614,-1.4845626,-0.24065685,17.5871518,78.12034151,452.86346435546875
0.07878101,-1.3242791,-0.07951164,17.5871518,78.12034151,452.86346435546875
1.4184396,-0.34268022,-0.086821556,17.5871518,78.12034151,452.86346435546875
0.51340693,0.6039858,-0.31076813,17.5871518,78.12034151,452.86346435546875
0.63872564,-0.8540633,0.09571934,17.5871518,78.12034151,452.86346435546875
0.37950712,-0.4707539,0.17283249,17.5871518,78.12034151,452.86346435546875
1.1349124,0.58037996,0.6654234,17.5871518,78.12034151,452.86346435546875
-0.2858441,-0.63555574,-0.5367689,17.5871518,78.12034151,452.86346435546875
0.5659103,0.10501695,0.0835495,17.5871518,78.12034151,452.86346435546875
1.7276962,1.8124158,-0.1676712,17.58722952,78.12037058,452.89190673828125
-0.1016248,-0.7325654,0.25589848,17.58722952,78.12037058,452.89190673828125
0.69449115,-1.0039623,-0.25181484,17.58722952,78.12037058,452.89190673828125
0.4433176,-1.4288259,0.36096478,17.58722952,78.12037058,452.89190673828125
1.8231977,1.0648127,-0.741416,17.58722952,78.12037058,452.89190673828125
0.113189965,-0.41700077,0.06724548,17.58722952,78.12037058,452.89190673828125
0.03958714,-1.0609963,0.008698463,17.58722952,78.12037058,452.89190673828125
0.9442965,-0.43848324,-0.48531818,17.58722952,78.12037058,452.89190673828125
-0.18965283,-1.0809608,0.50642204,17.58722952,78.12037058,452.89190673828125
0.67410743,-0.48301053,0.021233559,17.58729933,78.12041363,452.742431640625
0.917595,-0.41907835,-0.2973299,17.58729933,78.12041363,452.742431640625
0.33481413,1.0608029,-0.09570122,17.58729933,78.12041363,452.742431640625
0.9464749,1.1765871,-0.007821083,17.58729933,78.12041363,452.742431640625
-0.12586933,-1.769155,1.2313957,17.58729933,78.12041363,452.742431640625
0.61736435,0.18474007,0.27602386,17.58729933,78.12041363,452.742431640625
-0.33149892,-0.47979546,-0.8759651,17.58729933,78.12041363,452.742431640625
0.24820554,-0.5711143,0.7161188,17.58729933,78.12041363,452.742431640625
1.2955265,0.026702166,0.07478905,17.58729933,78.12041363,452.742431640625
0.13158259,-0.09432173,0.07136822,17.58729933,78.12041363,452.742431640625
0.22144201,0.27676225,0.025979996,17.58733204,78.12045583,453.1468505859375
0.6107785,-0.20000958,0.41205692,17.58733204,78.12045583,453.1468505859375
0.8778671,0.5591779,0.2638197,17.58733204,78.12045583,453.1468505859375
-0.5962846,-0.5776162,-0.65601826,17.58733204,78.12045583,453.1468505859375
0.3280268,-0.5910969,0.52460957,17.58733204,78.12045583,453.1468505859375
-0.18756425,-1.4427454,0.05790043,17.58733204,78.12045583,453.1468505859375
0.14065307,0.6980274,0.42177486,17.58733204,78.12045583,453.1468505859375
0.28031152,-0.80186844,0.105397224,17.58733204,78.12045583,453.1468505859375
-0.17080116,-1.2372236,-0.018307686,17.58733204,78.12045583,453.1468505859375
0.0747343,-0.29428983,-0.47866535,17.58733204,78.12045583,453.1468505859375
0.18106452,-0.6961849,0.3262453,17.58738674,78.12051807,452.69244384765625
0.12378806,0.61010313,0.70365715,17.58738674,78.12051807,452.69244384765625
-0.26646355,-0.52149653,0.20003223,17.58738674,78.12051807,452.69244384765625
0.23797381,0.1367886,-0.52002907,17.58738674,78.12051807,452.69244384765625
0.11732191,-0.0051734447,0.10653591,17.58738674,78.12051807,452.69244384765625
-1.0116513,-0.18750572,0.49339867,17.58738674,78.12051807,452.69244384765625
0.17262411,0.1113286,-0.25249386,17.58738674,78.12051807,452.69244384765625
-0.76379377,-0.8786409,0.17949677,17.58738674,78.12051807,452.69244384765625
0.013976514,0.007607937,-0.055906296,17.58738674,78.12051807,452.69244384765625
-0.38415834,0.14356041,0.36465168,17.5874398,78.1205825,451.4400634765625
-0.360178,0.029112339,0.091713905,17.5874398,78.1205825,451.4400634765625
-1.0308254,-0.58248377,-0.20175838,17.5874398,78.1205825,451.4400634765625
-0.015468612,0.24884844,-0.4718895,17.5874398,78.1205825,451.4400634765625
-0.8442638,-0.36476493,0.36604214,17.5874398,78.1205825,451.4400634765625
0.36202857,0.29673767,0.060049057,17.5874398,78.1205825,451.4400634765625
-0.76589334,-0.5187218,0.00890255,17.5874398,78.1205825,451.4400634765625
-0.73620635,-0.10766125,-0.11393547,17.5874398,78.1205825,451.4400634765625
-0.59845823,0.2331016,-0.13459396,17.5874398,78.1205825,451.4400634765625
-0.24064173,0.008173704,0.17751503,17.5874398,78.1205825,451.4400634765625
-1.9938215,-0.98847246,0.54088974,17.58748658,78.12064479,451.6934814453125
0.85354006,0.66856,0.3315792,17.58748658,78.12064479,451.6934814453125
-0.45646083,-0.050035477,-0.31138706,17.58748658,78.12064479,451.6934814453125
-0.07826662,0.08879948,-0.28513718,17.58748658,78.12064479,451.6934814453125
-1.792565,-0.96572757,0.22429276,17.58748658,78.12064479,451.6934814453125
0.19073996,0.6731653,0.34709644,17.58748658,78.12064479,451.6934814453125
-0.95910835,-1.315654,0.5023813,17.58748658,78.12064479,451.6934814453125
0.45602018,-0.92788625,-0.06780243,17.58748658,78.12064479,451.6934814453125
0.035237245,-0.69945955,0.7533245,17.58748658,78.12064479,451.6934814453125
-0.25224018,-0.59756994,0.7850466,17.58752401,78.12070911,451.73028564453125
-1.140601,-0.61737823,-0.14500237,17.58752401,78.12070911,451.73028564453125
0.33650824,0.071243525,0.19871044,17.58752401,78.12070911,451.73028564453125
-0.7554226,-1.3910396,0.8741932,17.58752401,78.12070911,451.73028564453125
0.47181368,-0.8501513,0.5563507,17.58752401,78.12070911,451.73028564453125
0.044229478,-0.90096116,0.8103237,17.58752401,78.12070911,451.73028564453125
-0.5714607,-0.38965297,1.8696384,17.58752401,78.12070911,451.73028564453125
-0.123839825,-1.1851425,0.4939928,17.58752401,78.12070911,451.73028564453125
-0.6838874,-1.5796132,-0.41586494,17.58752401,78.12070911,451.73028564453125
-0.569932,-0.36922598,1.0592775,17.58752401,78.12070911,451.73028564453125
0.10242653,0.67210436,2.4094343,17.58755873,78.12076632,452.2537841796875
0.1446808,-1.0049701,2.1641254,17.58755873,78.12076632,452.2537841796875
0.27922794,-1.3471332,3.2253447,17.58755873,78.12076632,452.2537841796875
-0.6791709,-1.3925319,-4.0195303,17.58755873,78.12076632,452.2537841796875
0.06645936,-2.4835057,-3.8413534,17.58755873,78.12076632,452.2537841796875
0.45637298,1.1972246,-2.133119,17.58755873,78.12076632,452.2537841796875
-1.0944777,0.24281931,1.6913319,17.58755873,78.12076632,452.2537841796875
-0.32994348,2.3863223,2.831542,17.58755873,78.12076632,452.2537841796875
-0.06389481,0.13717818,0.9471941,17.58755873,78.12076632,452.2537841796875
-1.2027661,-0.059720516,-1.4713173,17.58755873,78.12076632,452.2537841796875
-1.6129441,-1.2524247,-0.7270174,17.58759324,78.12081263,452.2318115234375
1.84029,0.5992193,-1.9930086,17.58759324,78.12081263,452.2318115234375
0.17733902,-0.012862921,1.9584217,17.58759324,78.12081263,452.2318115234375
-1.2369294,-1.160847,-2.2029228,17.58759324,78.12081263,452.2318115234375
-0.22982943,-0.6216934,1.7311573,17.58759324,78.12081263,452.2318115234375
-1.6211941,1.6278312,0.29584408,17.58759324,78.12081263,452.2318115234375
1.4610964,-0.2571814,-2.305787,17.58759324,78.12081263,452.2318115234375
-1.2604744,-1.6413715,-2.162714,17.58759324,78.12081263,452.2318115234375
0.35371405,1.3365645,-1.3684511,17.58759324,78.12081263,452.2318115234375
0.24483448,2.1506546,1.1908226,17.58762585,78.12084553,452.40087890625
-1.1630173,2.533784,2.6088324,17.58762585,78.12084553,452.40087890625
-0.6287618,2.7417397,0.46306705,17.58762585,78.12084553,452.40087890625
-3.5455618,-4.3345222,-1.0441828,17.58762585,78.12084553,452.40087890625
0.4692701,1.9361744,-0.67976,17.58762585,78.12084553,452.40087890625
0.9280169,1.8444285,-1.4754419,17.58762585,78.12084553,452.40087890625
-2.370239,-2.2788706,1.112258,17.58762585,78.12084553,452.40087890625
-0.011434678,1.117738,-0.6438627,17.58762585,78.12084553,452.40087890625
